Block	TrialType	Trial	Signal	Response	RT	SSD	keyDuration	keyDuration_startSyched	keyRT	feedback_ms	vert	feedback_synched
1	practice	1	1	1	0.8167998970020562	1	0.8399895300390199	0.805541298002936	-0.03444823203608394	5.541298002935902	4.761849655294791	16.7998970020562
1	practice	2	0	0	NaN	0.5	0.8399895300390199	0.805541298002936	-0.03444823203608394	5.541298002935902	0.009999999999999787	16.7998970020562
1	main	1	1	1	0.8335577669786289	1	0.8399986489675939	0.8307722109602764	-0.009226438007317483	30.772210960276382	5.013253359463997	33.55776697862889
1	main	2	0	0	NaN	0.5250000000000001	0.8399986489675939	0.8307722109602764	-0.009226438007317483	30.772210960276382	0.38500000000000156	33.55776697862889
1	main	3	1	1	0.8335592219373211	1	0.855965155060403	0.8295901690144092	-0.026374986045993865	29.590169014409142	5.013265899140388	33.559221937321084
1	main	4	1	1	0.8838666349183768	1	0.8960309328977019	0.8736279049189761	-0.02240302797872573	73.62790491897609	5.767822255254723	83.86663491837676
1	main	5	0	0	NaN	0.55	0.8960309328977019	0.8736279049189761	-0.02240302797872573	73.62790491897609	0.7599999999999998	83.86663491837676
1	main	6	1	1	0.800472920993343	1	0.8080351969692856	0.7942796589341015	-0.013755538035184145	5.720341065898582	4.51695475039538	0.47292099334295123
1	main	7	1	1	0.8173964889720082	1	0.8240115389926359	0.8127993419766426	-0.011212197015993297	12.799341976642564	4.770747054242529	17.396488972008186
1	main	8	1	1	0.8166017869953066	1	0.83201796899084	0.8117525279521942	-0.020265441038645804	11.75252795219417	4.758940314166248	16.60178699530657
1	main	9	1	1	0.15051452501211315	1	0.1520011220127344	0.13436664605978876	-0.01763447595294565	665.6333539402112	-5.232421250441112	649.4854749878868
1	main	10	1	1	0.800195430056192	1	0.808005866012536	0.7850079440977424	-0.02299792191479355	14.992055902257606	4.512825370873324	0.19543005619193643
1	main	11	0	1	0.783849905943498	0.5750000000000001	0.7919934369856492	0.7794108429225162	-0.012582594063133001	14.992055902257606	1.1350000000000016	0.19543005619193643
1	main	12	1	1	0.8007153420476243	1	0.8080385709181428	0.7956991599639878	-0.012339410954155028	4.300840036012277	4.520597920161672	0.7153420476242456
1	main	13	1	1	0.8505476439604536	1	0.8559973719529808	0.8380856829462573	-0.017911689006723464	38.08568294625725	5.2680149797722695	50.54764396045353
1	main	14	1	1	0.8001604840392247	1	0.8160241430159658	0.7912796930177137	-0.024744449998252094	8.720306982286319	4.512311619580723	0.16048403922463983
1	main	15	0	0	NaN	0.55	0.8160241430159658	0.7912796930177137	-0.024744449998252094	8.720306982286319	0.7599999999999998	0.16048403922463983
1	main	16	0	0	NaN	0.5750000000000001	0.8160241430159658	0.7912796930177137	-0.024744449998252094	8.720306982286319	1.1350000000000016	0.16048403922463983
1	main	17	0	1	0.817264850018546	0.6000000000000001	0.8400842059636489	0.8157224990427494	-0.02436170692089945	8.720306982286319	1.5100000000000016	0.16048403922463983
1	main	18	1	1	0.8337662520352751	1	0.8479979749536142	0.825600698008202	-0.02239727694541216	25.600698008201974	5.0163547753961755	33.76625203527506
1	main	19	0	1	0.8169839400798082	0.5750000000000001	0.8240005089901388	0.8105756200384349	-0.013424888951703906	25.600698008201974	1.1350000000000016	33.76625203527506
1	main	20	1	1	0.8150288930628449	1	0.8160124679561704	0.8020466760499403	-0.013965791906230152	2.0466760499402437	4.735298485718667	15.028893062844828
1	main	21	0	0	NaN	0.55	0.8160124679561704	0.8020466760499403	-0.013965791906230152	2.0466760499402437	0.7599999999999998	15.028893062844828
1	main	22	1	1	0.8336725740227848	1	0.839990132022649	0.8235569440294057	-0.016433187993243337	23.55694402940567	5.01494689156767	33.67257402278479
1	main	23	1	1	0.8337801289744675	1	0.8560774460202083	0.832068764953874	-0.024008681066334248	32.06876495387401	5.016562959169969	33.78012897446747
1	main	24	0	0	NaN	0.5750000000000001	0.8560774460202083	0.832068764953874	-0.024008681066334248	32.06876495387401	1.1350000000000016	33.78012897446747
1	main	25	1	1	0.7834862390300259	1	0.8000045749358833	0.7765213130041957	-0.023483261931687593	23.478686995804352	4.262196805900894	16.513760969974143
1	main	26	1	1	0.8502319109393284	1	0.8479827110422775	0.8355975149897859	-0.012385196052491665	35.59751498978581	5.263381584188901	50.23191093932833
1	main	27	1	1	0.7836593210231513	1	0.7999795509967953	0.7808027860010043	-0.019176764995791018	19.197213998995764	4.264786676028743	16.340678976848764
1	main	28	1	1	0.81714392604772	1	0.8240018010837957	0.8147467330563813	-0.009255068027414382	14.7467330563813	4.766994519848376	17.143926047719972
1	main	29	0	1	0.800322238006629	0.6000000000000001	0.816000938997604	0.7974851810140535	-0.01851575798355043	14.7467330563813	1.5100000000000016	17.143926047719972
1	main	30	1	1	0.8503187610767782	1	0.8479918939992785	0.8363539760466665	-0.011637917952612042	36.35397604666646	5.2646923304907975	50.31876107677813
1	main	31	1	1	0.7504049990093336	1	0.776151386089623	0.7481904120650142	-0.02796097402460873	51.8095879349858	3.765898659583181	49.59500099066649
1	main	32	1	1	0.8174198429333046	1	0.8239891869015992	0.8010612549260259	-0.0229279319755733	1.061254926025823	4.771177510372363	17.419842933304565
1	main	33	1	1	0.8503040520008653	1	0.8559888910967857	0.8420372240943834	-0.013951667002402246	42.037224094383376	5.264404254956171	50.3040520008653
1	main	34	0	1	0.8002002459252253	0.5750000000000001	0.7999918969580904	0.7854877619538456	-0.014504135004244745	42.037224094383376	1.1350000000000016	50.3040520008653
1	main	35	1	1	0.8172198820393533	1	0.8240029639564455	0.803264740970917	-0.02073822298552841	3.2647409709170017	4.768157140458934	17.21988203935321
1	main	36	1	1	0.8002696420298889	1	0.8080974300391972	0.7992988990154117	-0.008798531023785472	0.7011009845883098	4.513899415722117	0.2696420298888835
1	main	37	1	1	0.8003374689724296	1	0.7999934259569272	0.7846858849516138	-0.015307541005313396	15.314115048386201	4.514920885083265	0.33746897242958873
1	main	38	1	1	0.8172189720207825	1	0.8239916530437768	0.8013951620087028	-0.022596491035073996	1.3951620087027106	4.768093809941783	17.218972020782488
1	main	39	1	1	0.7670468499418348	1	0.7839997709961608	0.7639975199708715	-0.020002251025289297	36.002480029128535	4.0155766294244675	32.953150058165235
1	main	40	1	1	0.8174287560395896	1	0.8319987540598959	0.8168791830539703	-0.015119571005925536	16.879183053970294	4.771275250348262	17.4287560395896
1	main	41	1	1	0.8169373500859365	1	0.8240002320380881	0.8103075970429927	-0.013692634995095432	10.307597042992667	4.763913265885785	16.937350085936444
1	main	42	0	0	NaN	0.55	0.8240002320380881	0.8103075970429927	-0.013692634995095432	10.307597042992667	0.7599999999999998	16.937350085936444
1	main	43	1	1	0.8668143480317667	1	0.8880105150165036	0.8613249129848555	-0.02668560203164816	61.32491298485543	5.512118035801686	66.81434803176667
1	main	44	1	1	0.8003474329598248	1	0.816018778947182	0.796015188912861	-0.02000359003432095	3.9848110871389952	4.515058149225078	0.3474329598247561
1	main	45	1	1	0.800500598968938	1	0.8159920400939882	0.7979238610714674	-0.01806817902252078	2.076138928532645	4.517370969513431	0.5005989689379486
1	main	46	0	0	NaN	0.5750000000000001	0.8159920400939882	0.7979238610714674	-0.01806817902252078	2.076138928532645	1.1350000000000016	0.5005989689379486
1	main	47	1	1	0.8003412700491026	1	0.8160204959567636	0.7912055139895529	-0.02481498196721077	8.794486010447189	4.515014035967178	0.34127004910256
1	main	48	1	1	0.8172438619658351	1	0.8240005259867758	0.809444937040098	-0.014555588946677744	9.444937040097967	4.768480180753395	17.243861965835052
1	main	49	1	1	0.8173053750069812	1	0.8320447580190375	0.8167069780174643	-0.015337780001573265	16.706978017464237	4.7693736846465615	17.30537500698115
1	main	50	0	1	0.8333519349107519	0.6000000000000001	0.8479803509544581	0.824618884944357	-0.02336146601010114	16.706978017464237	1.5100000000000016	17.30537500698115
1	main	51	1	1	0.7838909190613776	1	0.7920308480970562	0.7827253590803593	-0.00930548901669681	17.274640919640703	4.268230901323259	16.109080938622398
1	main	52	1	1	0.8502978979377076	1	0.8560061330208555	0.8382359719835222	-0.01777016103733331	38.235971983522134	5.2643733990751205	50.29789793770756
1	main	53	0	0	NaN	0.5750000000000001	0.8560061330208555	0.8382359719835222	-0.01777016103733331	38.235971983522134	1.1350000000000016	50.29789793770756
1	main	54	1	1	0.8336227990221232	1	0.8400656000012532	0.8251070900587365	-0.014958509942516685	25.10709005873646	5.0142037153616545	33.622799022123175
1	main	55	1	1	0.8339852689532563	1	0.8399964809650555	0.8261432850267738	-0.013853195938281715	26.143285026773768	5.019644050733186	33.985268953256266
1	main	56	0	1	0.8171363159781322	0.6000000000000001	0.8319956980412826	0.810634296038188	-0.021361402003094554	26.143285026773768	1.5100000000000016	33.985268953256266
1	main	57	1	1	0.7674330149311572	1	0.7839938870165497	0.7643151999218389	-0.019678687094710767	35.6848000781611	4.021233458877541	32.56698506884281
1	main	58	1	1	0.8003377070417628	1	0.8160233800299466	0.7933090219739825	-0.022714358055964112	6.690978026017591	4.514934205324389	0.3377070417627248
1	main	59	0	1	0.7667006839765236	0.5750000000000001	0.7759997200919315	0.7577554529998451	-0.018244267092086375	6.690978026017591	1.1350000000000016	0.3377070417627248
1	main	60	1	1	0.8335031899623573	1	0.8320111450739205	0.8185325770173222	-0.013478568056598306	18.53257701732214	5.01242966460064	33.50318996235724
1	main	61	0	1	0.7337143468903378	0.55	0.751984192058444	0.7305211289785802	-0.021463063079863787	18.53257701732214	0.7599999999999998	33.50318996235724
1	main	62	1	1	0.7836324359523132	1	0.7920075310394168	0.7768183150328696	-0.015189216006547213	23.181684967130465	4.264364844528027	16.3675640476868
1	main	63	0	0	NaN	0.5250000000000001	0.7920075310394168	0.7768183150328696	-0.015189216006547213	23.181684967130465	0.38500000000000156	16.3675640476868
1	main	64	1	1	0.7504564670380205	1	0.7680187969235703	0.7448962619528174	-0.023122534970752895	55.1037380471826	3.766738810916431	49.54353296197955
1	main	65	1	1	0.8171244659461081	1	0.8319986059796065	0.8127685559447855	-0.019230050034821033	12.768555944785431	4.766663813604973	17.12446594610806
1	main	66	1	1	0.8173172429669648	1	0.8320675020804629	0.8154910240555182	-0.016576478024944663	15.491024055518166	4.769548690053634	17.3172429669648
1	main	67	1	1	0.8338897329522297	1	0.8480598910246044	0.8319141570245847	-0.01614573400001973	31.914157024584668	5.018180305012502	33.889732952229636
1	main	68	1	1	0.8167219599708915	1	0.8320254000136629	0.8095571119338274	-0.022468288079835474	9.557111933827356	4.760737238791771	16.721959970891433
1	main	69	1	1	0.8004077710211277	1	0.800026583019644	0.7890835120342672	-0.010943070985376835	10.916487965732857	4.515923905526288	0.4077710211276564
1	main	70	0	1	0.7671318140346557	0.55	0.7759875400224701	0.761409925064072	-0.014577614958398044	10.916487965732857	0.7599999999999998	0.4077710211276564
1	main	71	1	1	0.7338744279695675	1	0.7279944879701361	0.7179733749944717	-0.010021112975664437	82.02662500552837	3.5180043849302454	66.12557203043256
1	main	72	1	1	0.7844314239919186	1	0.8000201060203835	0.7800095280399546	-0.020010577980428934	19.99047196004544	4.276286710044369	15.56857600808148
1	main	73	1	1	0.8001851739827543	1	0.8160108720185235	0.7919074030360207	-0.024103468982502818	8.092596963979348	4.5126647648774085	0.1851739827543053
1	main	74	1	1	0.816954176989384	1	0.823999239015393	0.8017725159879774	-0.022226723027415574	1.7725159879773411	4.764223270574584	16.954176989383953
1	main	75	1	1	0.8219519460108131	1	0.8239982440136373	0.8121590000810102	-0.011839243932627141	12.159000081010118	4.839158515203744	21.951946010813074
1	main	76	0	0	NaN	0.5250000000000001	0.8239982440136373	0.8121590000810102	-0.011839243932627141	12.159000081010118	0.38500000000000156	21.951946010813074
1	main	77	1	1	0.8001086480217054	1	0.8079972729319707	0.783706272020936	-0.024291000911034644	16.29372797906403	4.511535490271635	0.10864802170540422
1	main	78	1	1	0.7832602959824726	1	0.7920066450024024	0.7783509358996525	-0.013655709102749825	21.649064100347502	4.25878898425959	16.739704017527444
1	main	79	1	1	0.8341425949474797	1	0.8480129679664969	0.8310460309730843	-0.016966936993412673	31.04603097308423	5.02195938908495	34.14259494747962
1	main	80	0	0	NaN	0.55	0.8480129679664969	0.8310460309730843	-0.016966936993412673	31.04603097308423	0.7599999999999998	34.14259494747962
1	main	81	1	1	0.7668023719452322	1	0.7760186230298132	0.7618613130180165	-0.014157310011796653	38.138686981983525	4.011924129552208	33.19762805476789
1	main	82	0	0	NaN	0.5750000000000001	0.7760186230298132	0.7618613130180165	-0.014157310011796653	38.138686981983525	1.1350000000000016	33.19762805476789
1	main	83	1	1	0.8002666890388355	1	0.8080733200768009	0.7993559590540826	-0.00871736102271825	0.6440409459174123	4.513896504756994	0.2666890388354215
1	main	84	1	1	0.8671509349951521	1	0.8640063980128616	0.8513872229959816	-0.012619175016880035	51.38722299598153	5.51713291100692	67.15093499515201
1	main	85	1	1	0.8503538150107488	1	0.8559891278855503	0.8354869229951873	-0.02050220489036292	35.4869229951873	5.265174595513381	50.35381501074876
1	main	86	1	1	0.8171993419528008	1	0.8400264780502766	0.8135452519636601	-0.026481226086616516	13.545251963660077	4.767876128423959	17.199341952800708
1	main	87	1	1	0.8003510959679261	1	0.816004313994199	0.792964766966179	-0.023039547028020024	7.035233033821031	4.5151389856962485	0.3510959679260406
1	main	88	0	1	0.8166538960067555	0.6000000000000001	0.8239997519413009	0.8037416399456561	-0.020258111995644867	7.035233033821031	1.5100000000000016	0.3510959679260406
1	main	89	1	1	0.7839359870413318	1	0.7920452590333298	0.782041211030446	-0.010004048002883792	17.95878896955405	4.268918619016185	16.064012958668215
1	main	90	1	1	0.7669731990899891	1	0.7680148440413177	0.7522161380620673	-0.01579870597925037	47.78386193793271	4.0144348151423035	33.02680091001098
1	main	91	1	1	0.8334988870192319	1	0.8319866419769824	0.821570559986867	-0.010416081990115345	21.570559986866968	5.01235206913203	33.49888701923187
1	main	92	1	1	0.8505721429828554	1	0.8559867420699447	0.8406465830048546	-0.01534015906509012	40.64658300485458	5.268434274001047	50.5721429828554
1	main	93	0	1	0.8170950670028105	0.5750000000000001	0.8160055410116911	0.8032087010797113	-0.012796839931979775	40.64658300485458	1.1350000000000016	50.5721429828554
1	main	94	1	1	0.8005924100289121	1	0.8160826319362968	0.7985619580140337	-0.017520673922263086	1.4380419859663096	4.518727735956199	0.5924100289120826
1	main	95	1	1	0.7839106069877744	1	0.7920716220978647	0.7778043850557879	-0.014267237042076886	22.19561494421218	4.2684956053178755	16.08939301222567
1	main	96	1	1	0.8499809380155057	1	0.8640168110141531	0.8450165600515902	-0.01900025096256286	45.01656005159016	5.259571555177681	49.98093801550563
1	main	97	1	1	0.8332999270642176	1	0.8400008879834786	0.8196457209996879	-0.020355166983790696	19.645720999687867	5.0093926601018754	33.299927064217584
1	main	98	1	1	0.7835424370132387	1	0.8000116989715025	0.7801152450265363	-0.019896453944966197	19.884754973463757	4.26303932512179	16.457562986761374
1	main	99	1	1	0.8165628699352965	1	0.8319958999054506	0.8075985269388184	-0.024397372966632247	7.598526938818351	4.758345579719171	16.562869935296433
1	main	100	1	1	0.8336311280727386	1	0.8320102150319144	0.8210536460392177	-0.010956568992696702	21.053646039217668	5.0143221708619965	33.631128072738605
2	main	101	1	1	0.8170832239557058	1	0.824021995998919	0.8076384209562093	-0.016383575042709708	7.6384209562092575	4.766138093653135	17.08322395570572
2	main	102	0	0	NaN	0.55	0.824021995998919	0.8076384209562093	-0.016383575042709708	7.6384209562092575	0.7599999999999998	17.08322395570572
2	main	103	1	1	0.8503510809969157	1	0.8720700029516593	0.8483689830172807	-0.023701019934378564	48.368983017280655	5.265116590997204	50.351080996915655
2	main	104	1	1	0.816913450951688	1	0.8239815949928015	0.8023824000265449	-0.02159919496625662	2.382400026544884	4.7635479406360535	16.91345095168795
2	main	105	0	1	0.850290620001033	0.5750000000000001	0.8639915850944817	0.8372550490312278	-0.02673653606325388	2.382400026544884	1.1350000000000016	16.91345095168795
2	main	106	1	1	0.8337152160238475	1	0.8399858070770279	0.8195026320172474	-0.02048317505978048	19.502632017247336	5.015600650329143	33.71521602384742
2	main	107	1	1	0.8336303250398487	1	0.8480079899309203	0.829379586968571	-0.018628402962349355	29.379586968570905	5.014278174601495	33.63032503984864
2	main	108	1	1	0.8340673770289868	1	0.8480643460061401	0.8316204510629177	-0.016443894943222404	31.620451062917667	5.020862741037272	34.06737702898677
2	main	109	1	1	0.8172402780037373	1	0.8240034939954057	0.8010563720017672	-0.022947121993638575	1.056372001767114	4.7684675363032145	17.240278003737288
2	main	110	1	1	0.7668447709875181	1	0.7760329329175875	0.7636338910087943	-0.012399041908793151	36.366108991205735	4.012549585420638	33.15522901248191
2	main	111	0	0	NaN	0.55	0.7760329329175875	0.7636338910087943	-0.012399041908793151	36.366108991205735	0.7599999999999998	33.15522901248191
2	main	112	1	1	0.833512722980231	1	0.8400083209853619	0.8172433769796044	-0.02276494400575757	17.24337697960432	5.012555485698394	33.512722980231004
2	main	113	1	1	0.8003434989368543	1	0.807968434994109	0.7951956850010902	-0.012772749993018806	4.8043149989098755	4.515022089579142	0.3434989368542585
2	main	114	1	1	0.8501100949943066	1	0.8560033249668777	0.8371147009311244	-0.01888862403575331	37.11470093112435	5.261557943993248	50.11009499430652
2	main	115	0	1	0.8171466829953715	0.5750000000000001	0.8319930060533807	0.8142238010186702	-0.017769205034710467	37.11470093112435	1.1350000000000016	50.11009499430652
2	main	116	0	0	NaN	0.55	0.8319930060533807	0.8142238010186702	-0.017769205034710467	37.11470093112435	0.7599999999999998	50.11009499430652
2	main	117	0	0	NaN	0.5750000000000001	0.8319930060533807	0.8142238010186702	-0.017769205034710467	37.11470093112435	1.1350000000000016	50.11009499430652
2	main	118	1	1	0.8338426569243893	1	0.8560001390287653	0.8289455559570342	-0.02705458307173103	28.945555957034188	5.017468030089512	33.84265692438926
2	main	119	0	1	0.8170490659540519	0.6000000000000001	0.8160213000373915	0.8058379889698699	-0.010183311067521572	28.945555957034188	1.5100000000000016	33.84265692438926
2	main	120	1	1	0.8500928520224988	1	0.8640041090548038	0.8388555640121922	-0.02514854504261166	38.85556401219215	5.261263854443095	50.0928520224988
2	main	121	0	0	NaN	0.5750000000000001	0.8640041090548038	0.8388555640121922	-0.02514854504261166	38.85556401219215	1.1350000000000016	50.0928520224988
2	main	122	1	1	0.8172886869870126	1	0.8240839219652116	0.8150903700152412	-0.008993551949970424	15.090370015241161	4.769136099601164	17.288686987012582
2	main	123	1	1	0.8671095239697024	1	0.8719986610813066	0.8559199119918048	-0.016078749089501798	55.919911991804796	5.516505144876428	67.10952396970238
2	main	124	0	1	0.8502482469193637	0.6000000000000001	0.8079957669833675	0.7931370110018179	-0.01485875598154962	55.919911991804796	1.5100000000000016	67.10952396970238
2	main	125	1	1	0.8501932310173288	1	0.8480161399347708	0.835149472928606	-0.01286666700616479	35.14947292860593	5.262809004159644	50.193231017328756
2	main	126	1	1	0.817307465011254	1	0.8160129039315507	0.8057553309481591	-0.010257572983391583	5.755330948159054	4.769500419022515	17.30746501125391
2	main	127	1	1	0.7833946610335261	1	0.7920173080638051	0.7763150680111721	-0.015702240052632987	23.684931988827927	4.260810025259852	16.60533896647398
2	main	128	1	1	0.8002326629357412	1	0.807987535954453	0.7874347949400544	-0.020552741014398634	12.565205059945628	4.513360330127179	0.23266293574120134
2	main	129	0	1	0.7500404589809477	0.5750000000000001	0.7680189680540934	0.742646623053588	-0.025372345000505447	12.565205059945628	1.1350000000000016	0.23266293574120134
2	main	130	1	1	0.8330235469620675	1	0.8400177829898894	0.827513654017821	-0.012504128972068429	27.51365401782091	5.005245624450035	33.02354696206744
2	main	131	1	1	0.8335793970618397	1	0.8400064080487937	0.8207540350267664	-0.019252373022027314	20.754035026766317	5.013525774809532	33.57939706183966
2	main	132	1	1	0.8171014490071684	1	0.8239957810146734	0.8071243789745495	-0.01687140204012394	7.124378974549428	4.766365465000272	17.10144900716837
2	main	133	1	1	0.8170929530169815	1	0.8319964129477739	0.8082346329465508	-0.023761780001223087	8.234632946550802	4.766250699283555	17.09295301698144
2	main	134	0	0	NaN	0.55	0.8319964129477739	0.8082346329465508	-0.023761780001223087	8.234632946550802	0.7599999999999998	17.09295301698144
2	main	135	1	1	0.7838006479432806	1	0.8081372390734032	0.7817542389966547	-0.02638300007674843	18.245761003345294	4.266849909434095	16.199352056719405
2	main	136	1	1	0.8339859279803932	1	0.847990583977662	0.825612390995957	-0.02237819298170507	25.612390995956915	5.019639370837249	33.98592798039313
2	main	137	1	1	0.8501936959801242	1	0.8560265090782195	0.8451158640673384	-0.010910645010881126	45.115864067338364	5.262817826112732	50.19369598012413
2	main	138	1	1	0.7835004429798573	1	0.7920553280273452	0.7822662009857595	-0.009789127041585743	17.733799014240546	4.262100415760651	16.499557020142717
2	main	139	1	1	0.8171077279839665	1	0.8240135640371591	0.8097355869831517	-0.014277977054007351	9.73558698315169	4.766505355471745	17.107727983966427
2	main	140	1	1	0.7668680439237505	1	0.7680267519317567	0.7574151889421046	-0.010611562989652157	42.584811057895465	4.012900598570704	33.13195607624952
2	main	141	1	1	0.8169752809917554	1	0.8159974619047716	0.8013191969366744	-0.01467826496809721	1.3191969366743717	4.764422604455612	16.975280991755383
2	main	142	0	0	NaN	0.5750000000000001	0.8159974619047716	0.8013191969366744	-0.01467826496809721	1.3191969366743717	1.1350000000000016	16.975280991755383
2	main	143	1	1	0.8003743899753317	1	0.7999961669556797	0.7850040589692071	-0.014992107986472547	14.995941030792936	4.515471715820022	0.3743899753316793
2	main	144	1	1	0.8173546609468758	1	0.8160040620714426	0.8056637049885467	-0.010340357082895935	5.663704988546625	4.770222968761809	17.354660946875768
2	main	145	1	1	0.8339087120257318	1	0.8400112690869719	0.8234614640241489	-0.016549805062822998	23.46146402414884	5.0184881793009115	33.90871202573176
2	main	146	0	1	0.8002676549367607	0.6000000000000001	0.8080096039921045	0.7855318499496207	-0.022477754042483866	23.46146402414884	1.5100000000000016	33.90871202573176
2	main	147	1	1	0.8168099189642817	1	0.8319974771002308	0.805517356027849	-0.026480121072381735	5.517356027848974	4.762049995004199	16.809918964281636
2	main	148	1	1	0.8335900380043313	1	0.8480085039045662	0.824274516897276	-0.023733987007290125	24.274516897276	5.013754509962164	33.59003800433125
2	main	149	1	1	0.8000942330108956	1	0.807993206079118	0.7853827499784529	-0.022610456100665033	14.617250021547123	4.511270859618671	0.09423301089550584
2	main	150	0	0	NaN	0.5750000000000001	0.807993206079118	0.7853827499784529	-0.022610456100665033	14.617250021547123	1.1350000000000016	0.09423301089550584
2	main	151	1	1	0.7836210610112175	1	0.7920000429730862	0.7742140439804643	-0.0177859989926219	25.785956019535703	4.264226483753882	16.378938988782508
2	main	152	1	1	0.8005247099790722	1	0.8079950819956139	0.7928264810470864	-0.015168600948527455	7.173518952913627	4.517759425323456	0.5247099790721688
2	main	153	0	0	NaN	0.6000000000000001	0.8079950819956139	0.7928264810470864	-0.015168600948527455	7.173518952913627	1.5100000000000016	0.5247099790721688
2	main	154	1	1	0.816692610969767	1	0.831996081979014	0.813392641954124	-0.018603440024890006	13.39264195412393	4.76028530403506	16.692610969766932
2	main	155	1	1	0.8502862360328436	1	0.8640089799882844	0.841026960988529	-0.022982018999755383	41.026960988528984	5.26419868004974	50.28623603284355
2	main	156	0	1	0.8171937350416556	0.625	0.8239958559861407	0.8101468820823357	-0.013848973903805017	41.026960988528984	1.8849999999999998	50.28623603284355
2	main	157	1	1	0.8168674450134858	1	0.8239998379722238	0.8055176900234073	-0.01848214794881642	5.517690023407296	4.762913575503044	16.867445013485806
2	main	158	1	1	0.7838091490557417	1	0.7999959079315886	0.775055964011699	-0.02493994391988963	24.94403598830108	4.2669862148957325	16.190850944258315
2	main	159	0	1	0.8500780889298767	0.6000000000000001	0.8640179390786216	0.8428991480031982	-0.02111879107542336	24.94403598830108	1.5100000000000016	16.190850944258315
2	main	160	1	1	0.8335373150184751	1	0.8400035330560058	0.8195412630448118	-0.02046227001119405	19.541263044811743	5.012925716107711	33.53731501847501
2	main	161	0	0	NaN	0.5750000000000001	0.8400035330560058	0.8195412630448118	-0.02046227001119405	19.541263044811743	1.1350000000000016	33.53731501847501
2	main	162	1	1	0.8337445559445769	1	0.8479723701020703	0.8279224770376459	-0.020049893064424396	27.922477037645834	5.016048565264791	33.74455594457682
2	main	163	0	0	NaN	0.6000000000000001	0.8479723701020703	0.8279224770376459	-0.020049893064424396	27.922477037645834	1.5100000000000016	33.74455594457682
2	main	164	1	1	0.7837880289880559	1	0.7920162900118157	0.7798917139880359	-0.01212457602377981	20.108286011964125	4.2666651984816415	16.211971011944158
2	main	165	1	1	0.833579370053485	1	0.8319915499305353	0.8172168809687719	-0.014774668961763382	17.216880968771832	5.013554800641723	33.57937005348499
2	main	166	1	1	0.8838099299464375	1	0.8959975190227851	0.8690070960437879	-0.02699042297899723	69.00709604378785	5.766988690700382	83.80992994643744
2	main	167	1	1	0.8006403259932995	1	0.8080043790396303	0.7979158700909466	-0.010088508948683739	2.0841299090534893	4.5194395760679615	0.6403259932994398
2	main	168	1	1	0.8335163220763206	1	0.8400013360660523	0.8266350000631064	-0.0133663360029459	26.635000063106375	5.012617780701257	33.516322076320606
2	main	169	1	1	0.7500566709786654	1	0.7520019679795951	0.7332485569640994	-0.018753411015495658	66.75144303590064	3.760688409199938	49.94332902133469
2	main	170	0	1	0.8338565870653838	0.625	0.8479952629422769	0.825477038975805	-0.02251822396647185	66.75144303590064	1.8849999999999998	49.94332902133469
2	main	171	1	1	0.7836776711046696	1	0.7839890680043027	0.7702962390612811	-0.013692828943021595	29.703760938718958	4.265053719971329	16.32232889533047
2	main	172	1	1	0.7837598789483309	1	0.7919967919588089	0.773581292014569	-0.018415499944239855	26.418707985431	4.266240129470825	16.240121051669163
2	main	173	1	1	0.8002493490930647	1	0.8160254629328847	0.7926755159860477	-0.023349946946837008	7.324484013952359	4.51361639552284	0.24934909306462139
2	main	174	1	1	0.7670477740466595	1	0.7760065590264276	0.7553282639710233	-0.020678295055404305	44.67173602897678	4.015608024890534	32.95222595334057
2	main	175	1	1	0.8336590799735859	1	0.8480672360165045	0.831638791016303	-0.016428445000201464	31.63879101630296	5.01467159494292	33.65907997358586
2	main	176	0	1	0.8337100229691714	0.6000000000000001	0.8320079119876027	0.8192798859672621	-0.012728026020340621	31.63879101630296	1.5100000000000016	33.65907997358586
2	main	177	1	1	0.8005842319689691	1	0.7920020360033959	0.7836616790154949	-0.008340356987901032	16.33832098450516	4.5186192846065385	0.5842319689690623
2	main	178	1	1	0.8004673980176449	1	0.8080183870624751	0.7948046780657023	-0.013213708996772766	5.195321934297725	4.516879615364596	0.4673980176448378
2	main	179	1	1	0.8177419439889491	1	0.8239967999979854	0.8146570719545707	-0.009339728043414652	14.657071954570666	4.775941735240631	17.741943988949018
2	main	180	0	1	0.7841934609459713	0.5750000000000001	0.7840193359879777	0.7709444949869066	-0.013074841001071036	14.657071954570666	1.1350000000000016	17.741943988949018
2	main	181	1	1	0.8001888250000775	1	0.8240427820710465	0.7987692430615425	-0.02527353900950402	1.2307569384575334	4.512699476433918	0.18882500007744163
2	main	182	0	0	NaN	0.55	0.8240427820710465	0.7987692430615425	-0.02527353900950402	1.2307569384575334	0.7599999999999998	0.18882500007744163
2	main	183	1	1	0.8340635059867054	1	0.8400082369334996	0.8301943469559774	-0.009813889977522194	30.194346955977338	5.0208408695086835	34.06350598670538
2	main	184	1	1	0.8172190909972414	1	0.8400531630031765	0.8167547759367153	-0.023298387066461146	16.754775936715262	4.768111163973808	17.219090997241395
2	main	185	1	1	0.8002336879726499	1	0.8159886569483206	0.7955385879613459	-0.020450068986974657	4.461412038654133	4.513350849845446	0.2336879726498875
2	main	186	1	1	0.8002009239280596	1	0.8079949789680541	0.7915222819428891	-0.016472697025164962	8.47771805711095	4.512898990176618	0.20092392805959314
2	main	187	1	1	0.8504711160203442	1	0.8479908029548824	0.8357548450585455	-0.012235957896336913	35.75484505854543	5.266901695393026	50.471116020344155
2	main	188	0	1	0.7668780180392787	0.5750000000000001	0.792040794971399	0.7653857379918918	-0.026655056979507208	35.75484505854543	1.1350000000000016	50.471116020344155
2	main	189	1	1	0.8172351059038192	1	0.8239881000481546	0.8020594769623131	-0.021928623085841537	2.0594769623130116	4.768373065269552	17.23510590381916
2	main	190	1	1	0.8171504000201821	1	0.8880179879488423	0.8014836789807305	-0.08653430896811187	1.4836789807304296	4.767101350696757	17.15040002018209
2	main	191	1	1	0.7506804390577599	1	0.7679808650864288	0.7477985870791599	-0.020182278007268906	52.20141292084013	3.7700610411027444	49.3195609422401
2	main	192	1	1	0.8148747860686854	1	0.8319979120278731	0.8056717170402408	-0.026326194987632334	5.67171704024072	4.732970200818963	14.874786068685308
2	main	193	0	0	NaN	0.55	0.8319979120278731	0.8056717170402408	-0.026326194987632334	5.67171704024072	0.7599999999999998	14.874786068685308
2	main	194	1	1	0.8004299399908632	1	0.8160570209147409	0.7986865330021828	-0.01737048791255802	1.313466997817203	4.516240194896236	0.4299399908631596
2	main	195	1	1	0.8008596990257502	1	0.8159776970278472	0.794170928071253	-0.02180676895659417	5.829071928747043	4.522738675693981	0.8596990257501158
2	main	196	1	1	0.8172513960162178	1	0.8400097159901634	0.8125544340582564	-0.02745528193190694	12.554434058256403	4.768603675873019	17.251396016217726
2	main	197	1	1	0.8504296379396692	1	0.8640012330142781	0.8462019199505448	-0.01779931306373328	46.20191995054479	5.266304694339633	50.42963793966915
2	main	198	1	1	0.8001673439284787	1	0.8161241309717298	0.7995096090016887	-0.016614521970041096	0.4903909983113852	4.5123567089810965	0.1673439284786138
2	main	199	1	1	0.7504447150276974	1	0.768028786056675	0.7468829810386524	-0.021145805018022656	53.11701896134768	3.766559649482369	49.55528497230266
2	main	200	1	1	0.8006696309894323	1	0.8160118689993396	0.8000770369544625	-0.015934832044877112	0.07703695446248382	4.5198345103906465	0.6696309894322905
3	main	201	1	1	0.8170815149787813	1	0.8160066839773208	0.8022648349869996	-0.01374184899032116	2.2648349869995865	4.766079924991354	17.0815149787813
3	main	202	0	0	NaN	0.5750000000000001	0.8160066839773208	0.8022648349869996	-0.01374184899032116	2.2648349869995865	1.1350000000000016	17.0815149787813
3	main	203	1	1	0.8004989159526303	1	0.8000037609599531	0.7840362340211868	-0.01596752693876624	15.963765978813216	4.517341990829445	0.49891595263029664
3	main	204	1	1	0.8167797670466825	1	0.8400104269385338	0.8112993959803134	-0.028711030958220363	11.299395980313376	4.761589660882018	16.779767046682494
3	main	205	0	0	NaN	0.6000000000000001	0.8400104269385338	0.8112993959803134	-0.028711030958220363	11.299395980313376	1.5100000000000016	16.779767046682494
3	main	206	1	1	0.8504085630411282	1	0.8720194130437449	0.840715809026733	-0.03130360401701182	40.715809026733	5.266033434998244	50.408563041128176
3	main	207	1	1	0.8327099580783397	1	0.8400045899907127	0.8254418669966981	-0.01456272299401462	25.44186699669804	5.000492725628428	32.70995807833965
3	main	208	1	1	0.8504399369703606	1	0.8480115269776434	0.8355640670051798	-0.012447459972463548	35.56406700517978	5.266500774994492	50.439936970360534
3	main	209	1	1	0.8005612449487671	1	0.8080042660003528	0.7886613669106737	-0.019342899089679122	11.338633089326366	4.518222743752412	0.5612449487670812
3	main	210	1	1	0.7836603689938784	1	0.7920048169326037	0.7760317949578166	-0.015973021974787116	23.968205042183442	4.26467460998334	16.339631006121678
3	main	211	0	1	0.8174454580293968	0.625	0.8320816430496052	0.8165896660648286	-0.015491976984776556	23.968205042183442	1.8849999999999998	16.339631006121678
3	main	212	1	1	0.7832968250149861	1	0.7919973939424381	0.7794951579999179	-0.012502235942520201	20.504842000082178	4.259335405766032	16.703174985013945
3	main	213	1	1	0.8167546150507405	1	0.8240377879701555	0.8151238959981129	-0.00891389197204262	15.123895998112813	4.7611168604250995	16.754615050740497
3	main	214	1	1	0.8004940690007061	1	0.8079997840104625	0.7867830200120807	-0.021216763998381793	13.216979987919375	4.517276199874468	0.4940690007060322
3	main	215	0	0	NaN	0.6000000000000001	0.8079997840104625	0.7867830200120807	-0.021216763998381793	13.216979987919375	1.5100000000000016	0.4940690007060322
3	main	216	0	1	0.8335924859857187	0.625	0.8480017239926383	0.8261468049604446	-0.02185491903219372	13.216979987919375	1.8849999999999998	0.4940690007060322
3	main	217	0	1	0.8172542019747198	0.6000000000000001	0.8319865820230916	0.8126445680391043	-0.019342013983987272	13.216979987919375	1.5100000000000016	0.4940690007060322
3	main	218	1	1	0.08339714899193496	1	0.08799639204517007	0.07157828297931701	-0.01641810906585306	728.421717020683	-6.239129210482352	716.602851008065
3	main	219	0	0	NaN	0.5750000000000001	0.08799639204517007	0.07157828297931701	-0.01641810906585306	728.421717020683	1.1350000000000016	716.602851008065
3	main	220	1	1	0.8336111969547346	1	0.8399915749905631	0.8263249039882794	-0.013666671002283692	26.32490398827936	5.013996970481239	33.61119695473458
3	main	221	0	1	0.8006777779664844	0.6000000000000001	0.8240757440216839	0.7995380850043148	-0.02453765901736915	26.32490398827936	1.5100000000000016	33.61119695473458
3	main	222	1	1	0.8169609010219574	1	0.8239920170744881	0.8024451850214973	-0.021546832052990794	2.445185021497265	4.764295929451473	16.960901021957355
3	main	223	1	1	0.8507743779337034	1	0.8480030549690127	0.8376281339442357	-0.010374921024776995	37.6281339442357	5.271507654213346	50.77437793370332
3	main	224	0	0	NaN	0.5750000000000001	0.8480030549690127	0.8376281339442357	-0.010374921024776995	37.6281339442357	1.1350000000000016	50.77437793370332
3	main	225	1	1	0.8338213990209624	1	0.8400185059290379	0.8186540439492092	-0.021364461979828775	18.65404394920911	5.017159300148487	33.821399020962374
3	main	226	1	1	0.7834464539773762	1	0.7920103139476851	0.7710394089808688	-0.020970904966816306	28.960591019131286	4.261517590600997	16.55354602262382
3	main	227	1	1	0.8338511870242655	1	0.8320533829974011	0.8227441760245711	-0.009309206972829998	22.74417602457102	5.017652664207853	33.851187024265485
3	main	228	1	1	0.8335079810349271	1	0.8399983870331198	0.8243766779778525	-0.015621709055267274	24.37667797785248	5.0125022047339005	33.50798103492703
3	main	229	0	1	0.7170451349811628	0.6000000000000001	0.7199944000458345	0.7097567779710516	-0.010237622074782848	24.37667797785248	1.5100000000000016	33.50798103492703
3	main	230	1	1	0.800196512020193	1	0.8000110510038212	0.7879910150077194	-0.012020035996101797	12.008984992280647	4.512848139964044	0.19651202019299596
3	main	231	1	1	0.8337933989241719	1	0.8399960260139778	0.8242103989468887	-0.01578562706708908	24.210398946888702	5.0167406345624475	33.79339892417188
3	main	232	1	1	0.7837844380410388	1	0.7999978330917656	0.7766368000302464	-0.023361033061519265	23.363199969753666	4.266626814603805	16.21556195896123
3	main	233	1	1	0.8506289049983025	1	0.8476596859982237	0.8355994839221239	-0.012060202076099813	35.599483922123866	5.269278955054469	50.62890499830242
3	main	234	0	0	NaN	0.5750000000000001	0.8476596859982237	0.8355994839221239	-0.012060202076099813	35.599483922123866	1.1350000000000016	50.62890499830242
3	main	235	1	1	0.7669697100063786	1	0.7680281170178205	0.7534633439499885	-0.014564773067831993	46.53665605001156	4.014406494786963	33.03028999362145
3	main	236	1	1	0.8003765060566366	1	0.8160165681038052	0.7967151440680027	-0.019301424035802484	3.2848559319973436	4.515559989484027	0.3765060566365275
3	main	237	1	1	0.8006022260524333	1	0.8079871030058712	0.7979187510209158	-0.01006835198495537	2.081248979084238	4.518876310428604	0.6022260524332079
3	main	238	1	1	0.8332188379717991	1	0.8319936139741912	0.8175084559479728	-0.014485158026218414	17.50845594797279	5.008188519384712	33.21883797179903
3	main	239	1	1	0.8339370170142502	1	0.839993383968249	0.8198720919899642	-0.020121291978284717	19.872091989964204	5.018875720086507	33.93701701425012
3	main	240	1	1	0.8504326191032305	1	0.8559911000775173	0.836949811084196	-0.01904128899332136	36.94981108419593	5.266373020820319	50.43261910323049
3	main	241	1	1	0.8337246580049396	1	0.8320152139058337	0.8208122010109946	-0.011203012894839048	20.81220101099457	5.0157286611991	33.72465800493951
3	main	242	0	1	0.8004286689683795	0.6000000000000001	0.808000540942885	0.7901811329647899	-0.017819407978095114	20.81220101099457	1.5100000000000016	33.72465800493951
3	main	243	1	1	0.8003858369775116	1	0.8080024629598483	0.7859219099627808	-0.02208055299706757	14.07809003721927	4.5156252094218505	0.38583697751159995
3	main	244	1	1	0.8340144300600514	1	0.8480011710198596	0.8206486339913681	-0.027352537028491497	20.648633991368072	5.020042825015262	34.01443006005134
3	main	245	1	1	0.8166829469846562	1	0.8159973400179297	0.8051149370148778	-0.010882403003051877	5.114937014877752	4.7600752902124075	16.682946984656112
3	main	246	0	0	NaN	0.5750000000000001	0.8159973400179297	0.8051149370148778	-0.010882403003051877	5.114937014877752	1.1350000000000016	16.682946984656112
3	main	247	1	1	0.8170008920133114	1	0.8320199348963797	0.8132280169520527	-0.018791917944326997	13.228016952052668	4.76489440083038	17.000892013311343
3	main	248	1	1	0.8669651319505647	1	0.8800018730107695	0.8630677260225639	-0.01693414698820561	63.06772602256383	5.514352989955805	66.96513195056464
3	main	249	1	1	0.8340022139018402	1	0.84000301908236	0.8226766890147701	-0.01732633006758988	22.676689014770048	5.01988470914308	34.00221390184011
3	main	250	0	1	0.7674202539492399	0.6000000000000001	0.7919906880706549	0.7645106860436499	-0.027480002027004957	22.676689014770048	1.5100000000000016	34.00221390184011
3	main	251	1	1	0.7834139210171998	1	0.783986433991231	0.7694173200288787	-0.014569113962352276	30.582679971121294	4.261115950755775	16.586078982800288
3	main	252	1	1	0.8006345559842885	1	0.8079936129506677	0.791138076921925	-0.01685553602874279	8.861923078075096	4.5193915896723045	0.6345559842884096
3	main	253	0	1	0.7833296749740839	0.5750000000000001	0.7919912840006873	0.7761972770094872	-0.01579400699120015	8.861923078075096	1.1350000000000016	0.6345559842884096
3	main	254	1	1	0.833256873069331	1	0.8560289948945865	0.8296372320037335	-0.026391762890852988	29.637232003733473	5.008735525878146	33.25687306933101
3	main	255	1	1	0.8003774719545618	1	0.8079821889987215	0.7835976289352402	-0.02438456006348133	16.402371064759834	4.515483955144882	0.37747195456172555
3	main	256	0	0	NaN	0.55	0.8079821889987215	0.7835976289352402	-0.02438456006348133	16.402371064759834	0.7599999999999998	0.37747195456172555
3	main	257	1	1	0.8005360090173781	1	0.8079969710670412	0.7893342790193856	-0.018662692047655582	10.665720980614468	4.517854944095015	0.5360090173780474
3	main	258	1	1	0.7674164939671755	1	0.7759878769284114	0.7504644099390134	-0.025523466989398003	49.53559006098662	4.021044745566323	32.58350603282456
3	main	259	0	0	NaN	0.5750000000000001	0.7759878769284114	0.7504644099390134	-0.025523466989398003	49.53559006098662	1.1350000000000016	32.58350603282456
3	main	260	1	1	0.8343790350481868	1	0.848002390936017	0.8224928439594805	-0.025509546976536512	22.49284395948048	5.025592210693285	34.379035048186736
3	main	261	0	1	0.8170408570440486	0.6000000000000001	0.8320007990114391	0.8075819190125912	-0.024418879998847842	22.49284395948048	1.5100000000000016	34.379035048186736
3	main	262	1	1	0.8006105390377343	1	0.8159896649885923	0.7934217409929261	-0.022567923995666206	6.578259007073983	4.519014325449243	0.6105390377342257
3	main	263	0	1	0.8334652549820021	0.5750000000000001	0.8399913449538872	0.8191721359035	-0.020819209050387144	6.578259007073983	1.1350000000000016	0.6105390377342257
3	main	264	1	1	0.8003833240363747	1	0.8079808240290731	0.7890332570532337	-0.018947566975839436	10.966742946766361	4.515529481102712	0.38332403637464374
3	main	265	1	1	0.8170741309877485	1	0.8160150599433109	0.8018564690137282	-0.014158590929582715	1.856469013728157	4.76601683545392	17.07413098774846
3	main	266	1	1	0.8337227249285206	1	0.8480131219839677	0.8209615598898381	-0.027051562094129622	20.961559889838057	5.015730459815822	33.72272492852058
3	main	267	1	1	0.8338020070223138	1	0.8480060949223116	0.8227892270078883	-0.025216867914423347	22.789227007888215	5.016861026631668	33.80200702231373
3	main	268	1	1	0.7834903630428016	1	0.8000164079712704	0.7753627100028098	-0.02465369796846062	24.63728999719028	4.262226910903118	16.509636957198424
3	main	269	1	1	0.7997321670409292	1	0.8079873059177771	0.7871383499586955	-0.02084895595908165	12.861650041304573	4.505838640723377	0.26783295907084614
3	main	270	0	0	NaN	0.55	0.8079873059177771	0.7871383499586955	-0.02084895595908165	12.861650041304573	0.7599999999999998	0.26783295907084614
3	main	271	1	1	0.8333773370832205	1	0.8400098150596023	0.8256051600910723	-0.01440465496852994	25.60516009107228	5.010556990271434	33.37733708322044
3	main	272	1	1	0.8168730359757319	1	0.8320022650295869	0.8109427839517593	-0.021059481077827513	10.942783951759294	4.762938488963991	16.873035975731867
3	main	273	1	1	0.8165548869874328	1	0.8239986590342596	0.8046046099625528	-0.01939404907170683	4.6046099625527415	4.758233003774658	16.554886987432795
3	main	274	1	1	0.8170463891001418	1	0.8321686399867758	0.8151936100330204	-0.01697502995375544	15.193610033020333	4.765545775988139	17.04638910014178
3	main	275	1	1	0.8175711330259219	1	0.8319975630147383	0.8101102790096775	-0.021887284005060792	10.110279009677425	4.773348550768569	17.57113302592184
3	main	276	0	0	NaN	0.5750000000000001	0.8319975630147383	0.8101102790096775	-0.021887284005060792	10.110279009677425	1.1350000000000016	17.57113302592184
3	main	277	1	1	0.8338710309471935	1	0.8399820460472256	0.8264619950205088	-0.013520051026716828	26.461995020508724	5.0179222000204025	33.87103094719346
3	main	278	1	1	0.833446498028934	1	0.8480105800554156	0.8294606111012399	-0.01854996895417571	29.460611101239877	5.011579975360073	33.44649802893396
3	main	279	1	1	0.8173197089927271	1	0.8160056979395449	0.8081761479843408	-0.00782954995520413	8.176147984340743	4.769636831004172	17.319708992727058
3	main	280	0	1	0.7840004649478942	0.6000000000000001	0.7919961289735511	0.7704901249380782	-0.02150600403547287	8.176147984340743	1.5100000000000016	17.319708992727058
3	main	281	1	1	0.8336423540022224	1	0.8399958959780633	0.8281076960265636	-0.0118881999514997	28.107696026563602	5.014464474623091	33.642354002222376
3	main	282	0	1	0.7670624300371855	0.5750000000000001	0.783991698990576	0.7574922000057995	-0.026499498984776437	28.107696026563602	1.1350000000000016	33.642354002222376
3	main	283	1	1	0.7665326280985028	1	0.7680004920111969	0.7508249110542238	-0.017175580956973135	49.17508894577627	4.00789169547148	33.46737190149729
3	main	284	1	1	0.8337764180032536	1	0.8480005019810051	0.8209332060068846	-0.027067295974120498	20.933206006884532	5.016501565221697	33.776418003253596
3	main	285	1	1	0.8170401519164443	1	0.8159947809763253	0.8071923649404198	-0.00880241603590548	7.192364940419749	4.765452955141663	17.04015191644426
3	main	286	1	1	0.8503118519438431	1	0.8559060890693218	0.8341042590327561	-0.02180183003656566	34.10425903275605	5.264580865148455	50.311851943843024
3	main	287	1	1	0.7673014609608799	1	0.775995317962952	0.75627444696147	-0.01972087100148201	43.725553038530094	4.019370100684464	32.69853903912012
3	main	288	0	1	0.7332271239720285	0.55	0.7439855160191655	0.7294652779819444	-0.014520238037221134	43.725553038530094	0.7599999999999998	32.69853903912012
3	main	289	1	1	0.7505694789579138	1	0.7600146479671821	0.7427673309575766	-0.017247317009605467	57.23266904242341	3.7683761196583507	49.43052104208623
3	main	290	1	1	0.783958907937631	1	0.7919984488980845	0.7727042789338157	-0.019294169964268804	27.295721066184385	4.269223119588569	16.04109206236903
3	main	291	1	1	0.8026289619738236	1	0.8159944660728797	0.7907827669987455	-0.02521169907413423	9.217233001254543	4.549212504751049	2.6289619738235626
3	main	292	1	1	0.8341508370358497	1	0.8399955390486866	0.8182451110333204	-0.021750428015366197	18.245111033320384	5.0221512403711674	34.15083703584965
3	main	293	0	0	NaN	0.5250000000000001	0.8399955390486866	0.8182451110333204	-0.021750428015366197	18.245111033320384	0.38500000000000156	34.15083703584965
3	main	294	1	1	0.7652289610123262	1	0.7680083609884605	0.7486840429482982	-0.019324318040162325	51.315957051701886	3.9882701805233953	34.77103898767386
3	main	295	1	1	0.8006701120175421	1	0.808161991997622	0.7945002070628107	-0.013661784934811294	5.499792937189385	4.51988638040144	0.6701120175420794
3	main	296	1	1	0.8316966999555007	1	0.8399994740029797	0.8157479029614478	-0.02425157104153186	15.74790296144779	4.985258829654194	31.69669995550062
3	main	297	1	1	0.816498987027444	1	0.831990965991281	0.807850624085404	-0.024140341905876994	7.850624085403934	4.757354169958271	16.498987027443903
3	main	298	1	1	0.7671754290349782	1	0.7839991520158947	0.7555458900751546	-0.02845326194074005	44.45410992484544	4.01741848105099	32.82457096502189
3	main	299	1	1	0.7832919099600986	1	0.7760066349292174	0.7678303049178794	-0.008176330011337996	32.16969508212064	4.2592047091946	16.708090039901478
3	main	300	1	1	0.8172151070320979	1	0.824007548042573	0.8043058250332251	-0.019701723009347916	4.305825033225075	4.768078404702246	17.215107032097833
4	main	301	1	1	0.8003241820260882	1	0.7999985119095072	0.7880388429621235	-0.011959668947383761	11.96115703787659	4.514753515939228	0.32418202608819335
4	main	302	0	0	NaN	0.55	0.7999985119095072	0.7880388429621235	-0.011959668947383761	11.96115703787659	0.7599999999999998	0.32418202608819335
4	main	303	1	1	0.8171218009665608	1	0.8319918049965054	0.8096290309913456	-0.022362774005159736	9.6290309913456	4.766684289895929	17.121800966560798
4	main	304	1	1	0.833796723978594	1	0.8400032580830157	0.8202197880018502	-0.019783470081165433	20.219788001850205	5.016832060171291	33.7967239785939
4	main	305	0	1	0.7836889669997618	0.5750000000000001	0.79199499997776	0.7742047250503674	-0.017790274927392602	20.219788001850205	1.1350000000000016	33.7967239785939
4	main	306	1	1	0.8339954410912469	1	0.8479935149662197	0.8262460390105844	-0.02174747595563531	26.24603901058431	5.019791140910238	33.99544109124686
4	main	307	1	1	0.7841457140166312	1	0.8079979019239545	0.7780982439871877	-0.029899657936766744	21.9017560128123	4.27206984964665	15.854285983368799
4	main	308	1	1	0.8004224399337545	1	0.816036517964676	0.7951122439699247	-0.020924273994751275	4.8877560300752965	4.516119189900346	0.4224399337544593
4	main	309	1	1	0.8004309079842642	1	0.8159728399477899	0.7965470399940386	-0.019425799953751266	3.452960005961403	4.51628982973285	0.43090798426415056
4	main	310	1	1	0.8002975389827043	1	0.816014104988426	0.7903929490130395	-0.0256211559753865	9.607050986960575	4.51436104030814	0.2975389827042374
4	main	311	0	1	0.7666644480777904	0.55	0.7760114180855453	0.7525144690880552	-0.023496948997490108	9.607050986960575	0.7599999999999998	0.2975389827042374
4	main	312	1	1	0.8004029010189697	1	0.8159760209964588	0.7931226170621812	-0.022853403934277594	6.87738293781881	4.515918610957451	0.40290101896967023
4	main	313	1	1	0.8006821549497545	1	0.8239982170052826	0.7946540029952303	-0.029344214010052383	5.345997004769787	4.52009934884496	0.6821549497544321
4	main	314	1	1	0.7502221099566668	1	0.7520075360080227	0.7403337999712676	-0.011673736036755145	59.66620002873246	3.763234735340811	49.777890043333215
4	main	315	0	0	NaN	0.5250000000000001	0.7520075360080227	0.7403337999712676	-0.011673736036755145	59.66620002873246	0.38500000000000156	49.777890043333215
4	main	316	0	0	NaN	0.55	0.7520075360080227	0.7403337999712676	-0.011673736036755145	59.66620002873246	0.7599999999999998	49.777890043333215
4	main	317	0	1	0.7841060010250658	0.5750000000000001	0.8080001370981336	0.7814518640516326	-0.02654827304650098	59.66620002873246	1.1350000000000016	49.777890043333215
4	main	318	1	1	0.8172817629529163	1	0.8320718799950555	0.8165599229978397	-0.015511956997215748	16.559922997839706	4.769032013826072	17.28176295291628
4	main	319	0	0	NaN	0.55	0.8320718799950555	0.8165599229978397	-0.015511956997215748	16.559922997839706	0.7599999999999998	17.28176295291628
4	main	320	1	1	0.8835753599414602	1	0.8960603160085157	0.8739184499718249	-0.02214186603669077	73.91844997182484	5.76344032025896	83.57535994146015
4	main	321	0	1	0.8003066369565204	0.5750000000000001	0.8079902119934559	0.7933583889389411	-0.014631823054514825	73.91844997182484	1.1350000000000016	83.57535994146015
4	main	322	1	1	0.8337974200258031	1	0.8319970390293747	0.8199995320755988	-0.011997506953775883	19.999532075598793	5.016816864479333	33.797420025803106
4	main	323	1	1	0.8005059330025688	1	0.8239756119437516	0.7972420699661598	-0.026733541977591813	2.7579300338402835	4.51742550950963	0.505933002568737
4	main	324	0	0	NaN	0.55	0.8239756119437516	0.7972420699661598	-0.026733541977591813	2.7579300338402835	0.7599999999999998	0.505933002568737
4	main	325	1	1	0.8003785180626437	1	0.8160005810204893	0.7963205490959808	-0.019680031924508512	3.6794509040192214	4.515571661284193	0.3785180626436624
4	main	326	1	1	0.8669539650436491	1	0.8720173590118065	0.8522862399695441	-0.019731119042262435	52.28623996954407	5.514181120777502	66.95396504364903
4	main	327	1	1	0.8001617130357772	1	0.8079913400579244	0.7882392520550638	-0.019752088002860546	11.7607479449362	4.512330429968424	0.16171303577716678
4	main	328	1	1	0.8002678989432752	1	0.815997903002426	0.7931972609367222	-0.02280064206570387	6.802739063277885	4.513914263914339	0.26789894327516883
4	main	329	0	1	0.8170720560010523	0.5750000000000001	0.8160190479829907	0.8037043960066512	-0.012314651976339519	6.802739063277885	1.1350000000000016	0.26789894327516883
4	main	330	1	1	0.7999239460332319	1	0.8079924389021471	0.7887467489344999	-0.019245689967647195	11.253251065500125	4.5087182348268104	0.07605396676813037
4	main	331	1	1	0.8164524469757453	1	0.8319930840516463	0.8084776749601588	-0.023515409091487527	8.477674960158721	4.756675089118071	16.452446975745218
4	main	332	1	1	0.8664742390392348	1	0.8719905921025202	0.8504293820587918	-0.02156121004372835	50.429382058791774	5.507017464367673	66.47423903923477
4	main	333	1	1	0.8346610210137442	1	0.8481434360146523	0.8332515559159219	-0.014891880098730326	33.251555915921884	5.029747944315895	34.66102101374413
4	main	334	0	0	NaN	0.55	0.8481434360146523	0.8332515559159219	-0.014891880098730326	33.251555915921884	0.7599999999999998	34.66102101374413
4	main	335	1	1	0.8000508809927851	1	0.8160178540274501	0.7961100450484082	-0.019907808979041874	3.889954951591834	4.510678419717587	0.05088099278505176
4	main	336	1	1	0.783490011934191	1	0.7920084240613505	0.7695406749844551	-0.022467749076895416	30.459325015544934	4.262257524058223	16.509988065809054
4	main	337	1	1	0.7667941809631884	1	0.7759947819868103	0.762756741954945	-0.01323804003186524	37.243258045055015	4.011783248968422	33.20581903681163
4	main	338	1	1	0.8341716170543805	1	0.8399896710179746	0.8202446550130844	-0.019745016004890203	20.24465501308437	5.022435191310942	34.171617054380434
4	main	339	1	1	0.8003405550261959	1	0.8159990899730474	0.7950305249541998	-0.020968565018847585	4.9694750458002535	4.514949804395437	0.34055502619589895
4	main	340	1	1	0.7833714369917288	1	0.7999913600506261	0.7751169119728729	-0.024874448077753186	24.88308802712713	4.26046473974362	16.6285630082712
4	main	341	1	1	0.8002609299728647	1	0.8079886978957802	0.7949211389059201	-0.013067558989860117	5.078861094079956	4.513777928766794	0.26092997286464303
4	main	342	0	1	0.8001449219882488	0.5750000000000001	0.8159956060117111	0.7910325559787452	-0.02496305003296584	5.078861094079956	1.1350000000000016	0.26092997286464303
4	main	343	1	1	0.8003352209925652	1	0.8160172889474779	0.7942012118874118	-0.021816077060066164	5.798788112588271	4.514899703315459	0.3352209925651106
4	main	344	1	1	0.8341266210190952	1	0.8479925789870322	0.8300778010161594	-0.01791477797087282	30.077801016159313	5.021731029371731	34.12662101909514
4	main	345	1	1	0.8005155760329217	1	0.8079792830394581	0.7977150160586461	-0.010264266980811954	2.284983941353902	4.5176256099855525	0.5155760329216275
4	main	346	0	0	NaN	0.55	0.8079792830394581	0.7977150160586461	-0.010264266980811954	2.284983941353902	0.7599999999999998	0.5155760329216275
4	main	347	1	1	0.8504443120909855	1	0.8640046289656311	0.8422111850231886	-0.021793443942442536	42.21118502318855	5.266577410036698	50.444312090985434
4	main	348	1	1	0.8506711419904605	1	0.8720062000211328	0.8430526729207486	-0.028953527100384235	43.05267292074855	5.269939644602127	50.67114199046041
4	main	349	1	1	0.8002208820544183	1	0.8159842769382522	0.7962126709753647	-0.019771605962887406	3.7873290246352997	4.513224716172553	0.22088205441828102
4	main	350	0	1	0.7837128170067444	0.5750000000000001	0.7999971699900925	0.774453256977722	-0.025543913012370467	3.7873290246352997	1.1350000000000016	0.22088205441828102
4	main	351	1	1	0.8174885039916262	1	0.8239923910005018	0.8019023230299354	-0.02209006797056645	1.9023230299353155	4.772182975537143	17.48850399162616
4	main	352	1	1	0.817054849001579	1	0.8239992989692837	0.8114757660077885	-0.01252353296149522	11.475766007788435	4.765699929664843	17.054849001578944
4	main	353	0	0	NaN	0.55	0.8239992989692837	0.8114757660077885	-0.01252353296149522	11.475766007788435	0.7599999999999998	17.054849001578944
4	main	354	1	1	0.8335607730550691	1	0.8399955810746178	0.820026857079938	-0.01996872399467975	20.02685707993801	5.013318444942124	33.560773055069106
4	main	355	1	1	0.8174061171011999	1	0.8159809559583664	0.8059888200368732	-0.009992135921493173	5.988820036873177	4.770951460921205	17.406117101199882
4	main	356	0	0	NaN	0.5750000000000001	0.8159809559583664	0.8059888200368732	-0.009992135921493173	5.988820036873177	1.1350000000000016	17.406117101199882
4	main	357	1	1	0.8005141000030562	1	0.8079788469476625	0.7980809339787811	-0.009897912968881428	1.9190660212189403	4.517573500741273	0.5141000030561838
4	main	358	1	1	0.8001914500491694	1	0.8079813800286502	0.7840938119916245	-0.02388756803702563	15.90618800837551	4.512783580101095	0.19145004916931718
4	main	359	0	0	NaN	0.6000000000000001	0.8079813800286502	0.7840938119916245	-0.02388756803702563	15.90618800837551	1.5100000000000016	0.19145004916931718
4	main	360	1	1	0.8002899010898545	1	0.8241550619713962	0.7987161120399833	-0.025438949931412935	1.2838879600167719	4.5141917503112925	0.28990108985449403
4	main	361	0	1	0.8171009829966351	0.625	0.8159795679384843	0.8027680009836331	-0.01321156695485115	1.2838879600167719	1.8849999999999998	0.28990108985449403
4	main	362	1	1	0.8334343229653314	1	0.8480012540239841	0.8210000660037622	-0.02700118802022189	21.000066003762143	5.011423659850843	33.43432296533133
4	main	363	0	1	0.8334945499664173	0.6000000000000001	0.8319815269205719	0.8220090499380603	-0.00997247698251158	21.000066003762143	1.5100000000000016	33.43432296533133
4	main	364	1	1	0.8171549889957532	1	0.8318640330107883	0.8145360549679026	-0.01732797804288566	14.536054967902556	4.767196029531769	17.154988995753186
4	main	365	1	1	0.9001229790737852	1	0.911982980906032	0.8885500309988856	-0.023432949907146394	88.55003099888559	6.011699801417999	100.1229790737852
4	main	366	1	1	0.7842815689509735	1	0.8000788140343502	0.7821505159372464	-0.017928298097103834	17.84948406275366	4.274022038551047	15.718431049026593
4	main	367	1	1	0.7998694810084999	1	0.816013643052429	0.7924673560773954	-0.02354628697503358	7.532643922604665	4.507895441018045	0.13051899150018365
4	main	368	1	1	0.783573363092728	1	0.7920208929572254	0.7770063490606844	-0.015014543896541	22.9936509393156	4.263407515934668	16.426636907272083
4	main	369	1	1	0.7836869299644604	1	0.7919913959922269	0.776523548993282	-0.015467846998944879	23.476451006718023	4.26515052920673	16.31307003553961
4	main	370	0	1	0.7670561949489638	0.5750000000000001	0.7680091550573707	0.7568002759944648	-0.011208879062905908	23.476451006718023	1.1350000000000016	16.31307003553961
4	main	371	1	1	0.783391481032595	1	0.7839894989738241	0.7691306590568274	-0.014858839916996658	30.869340943172617	4.2607444613147525	16.608518967405004
4	main	372	1	1	0.7672260170802474	1	0.7839881079271436	0.7633343510096893	-0.020653756917454302	36.66564899031077	4.018230849867686	32.77398291975264
4	main	373	1	1	0.8167503169970587	1	0.8160245169419795	0.8022740819724277	-0.013750434969551861	2.274081972427622	4.761152740209363	16.750316997058647
4	main	374	1	1	0.8506835169391707	1	0.8719921829178929	0.8476196319097653	-0.02437255100812763	47.61963190976526	5.27008358458057	50.683516939170616
4	main	375	1	1	0.8173436450306326	1	0.8319581369869411	0.8097331749740988	-0.022224962012842298	9.733174974098757	4.769921319782734	17.343645030632572
4	main	376	0	1	0.7920382659649476	0.55	0.895991359022446	0.7873417750233784	-0.10864958399906754	9.733174974098757	0.7599999999999998	17.343645030632572
4	main	377	1	1	0.7501882530050352	1	0.7599979039514437	0.7410231740213931	-0.01897472993005067	58.97682597860698	3.7626820151833815	49.81174699496482
4	main	378	1	1	0.7503290640888736	1	0.7680046149762347	0.742031455039978	-0.025973159936256707	57.968544960022015	3.7647972565516827	49.67093591112648
4	main	379	1	1	0.8334233619971201	1	0.8399968299781904	0.8222974939271808	-0.017699336051009595	22.297493927180724	5.01121547433082	33.42336199712004
4	main	380	0	0	NaN	0.5250000000000001	0.8399968299781904	0.8222974939271808	-0.017699336051009595	22.297493927180724	0.38500000000000156	33.42336199712004
4	main	381	1	1	0.8337513740407303	1	0.8400001230183989	0.8227609860477969	-0.017239136970601976	22.760986047796862	5.016149050313979	33.751374040730255
4	main	382	0	0	NaN	0.55	0.8400001230183989	0.8227609860477969	-0.017239136970601976	22.760986047796862	0.7599999999999998	33.751374040730255
4	main	383	1	1	0.8003110239515081	1	0.8160237970296293	0.7929901309544221	-0.023033666075207293	7.009869045577988	4.514531379789114	0.3110239515080604
4	main	384	1	1	0.8006476650480181	1	0.8081130919745192	0.7986385560361668	-0.009474535938352346	1.3614439638331977	4.519499620180577	0.6476650480180535
4	main	385	1	1	0.7503835100214928	1	0.7680139460135251	0.7445160200586542	-0.02349792595487088	55.483979941345794	3.7655556703591717	49.616489978507204
4	main	386	1	1	0.7669499639887363	1	0.783987728995271	0.764163019019179	-0.01982470997609198	35.836980980821	4.014110816167667	33.05003601126377
4	main	387	1	1	0.8503963829716668	1	0.8639978319406509	0.8384854309260845	-0.02551240101456642	38.485430926084476	5.265792549578473	50.39638297166671
4	main	388	0	1	0.816869014990516	0.5750000000000001	0.8240464919945225	0.8025150790344924	-0.02153141296003014	38.485430926084476	1.1350000000000016	50.39638297166671
4	main	389	1	1	0.8338908449513838	1	0.8479966541053727	0.8256026910385117	-0.022393963066861033	25.60269103851165	5.018228259976022	33.89084495138373
4	main	390	1	1	0.800369575037621	1	0.8239990080473945	0.7998231690144166	-0.02417583903297782	0.17683098558340937	4.5153672249196095	0.36957503762091726
4	main	391	1	1	0.8004262190079316	1	0.8240059399977326	0.7970579690299928	-0.02694797096773982	2.9420309700072256	4.516227234378457	0.4262190079316053
4	main	392	1	1	0.8667190519627184	1	0.8639922350412235	0.8544689239934087	-0.009523311047814786	54.46892399340864	5.5106997392047194	66.71905196271832
4	main	393	0	0	NaN	0.55	0.8639922350412235	0.8544689239934087	-0.009523311047814786	54.46892399340864	0.7599999999999998	66.71905196271832
4	main	394	1	1	0.8338460670784116	1	0.8479993359651417	0.8243807470425963	-0.023618588922545314	24.380747042596298	5.017540510850958	33.84606707841154
4	main	395	1	1	0.818364757928066	1	0.8320523409638554	0.8163756199646741	-0.01567672099918127	16.375619964674073	4.785268614175729	18.364757928065913
4	main	396	1	1	0.8501474839868024	1	0.8559992670780048	0.8337990520521998	-0.022200215025804937	33.7990520521998	5.262047620015219	50.14748398680236
4	main	397	1	1	0.7835758570581675	1	0.8080699059646577	0.7821082950104028	-0.025961610954254866	17.891704989597244	4.263498160978779	16.424142941832585
4	main	398	1	1	0.7839885470457375	1	0.7920007769716904	0.7698346989927813	-0.022166077978909016	30.1653010072187	4.26966433074791	16.011452954262538
4	main	399	1	1	0.8178379560122266	1	0.8239777040435001	0.8077612100169063	-0.016216494026593864	7.761210016906217	4.7774125898629425	17.8379560122266
4	main	400	1	1	0.800450831069611	1	0.8240275719435886	0.7999661799985915	-0.024061391944997013	0.033820001408502165	4.516588840158656	0.4508310696109685
