Block	TrialType	Trial	Signal	Response	RT	SSD	keyDuration	keyDuration_startSyched	keyRT	feedback_ms	vert	feedback_synched
1	practice	1	1	1	0.9333138159709051	1	0.9599831060040742	0.9217862959485501	-0.03819681005552411	121.78629594855006	6.5095973353506995	133.31381597090507
1	practice	2	0	0	NaN	0.5	0.9599831060040742	0.9217862959485501	-0.03819681005552411	121.78629594855006	0.009999999999999787	133.31381597090507
1	main	1	1	1	0.18229495908599347	1	0.2000306120608002	0.17541010107379407	-0.024620510987006128	624.5898989262059	-4.755676535316743	617.7050409140065
1	main	2	1	1	0.8672071059700102	1	0.8721115650841966	0.8536542210495099	-0.018457344034686685	53.6542210495099	5.5179570406815035	67.20710597001012
1	main	3	1	0	NaN	1	0.8721115650841966	0.8536542210495099	-0.018457344034686685	53.6542210495099	7.51	67.20710597001012
1	main	4	1	1	0.8171431720256805	1	0.8240480499807745	0.8144447760423645	-0.009603273938409984	14.444776042364493	4.767067046011798	17.1431720256805
1	main	5	0	0	NaN	0.5250000000000001	0.8240480499807745	0.8144447760423645	-0.009603273938409984	14.444776042364493	0.38500000000000156	17.1431720256805
1	main	6	1	1	0.9506105250911787	1	0.9599949399707839	0.9424767780583352	-0.017518161912448704	142.47677805833513	6.769054120630026	150.61052509117866
1	main	7	0	0	NaN	0.55	0.9599949399707839	0.9424767780583352	-0.017518161912448704	142.47677805833513	0.7599999999999998	150.61052509117866
1	main	8	1	1	0.8670257659396157	1	0.8800471000140533	0.8656943739624694	-0.014352726051583886	65.69437396246936	5.515214214790612	67.02576593961562
1	main	9	1	1	0.9005919069750234	1	0.912002159981057	0.9001099169254303	-0.01189224305562675	100.10991692543026	6.018726789150387	100.5919069750234
1	main	10	0	0	NaN	0.5750000000000001	0.912002159981057	0.9001099169254303	-0.01189224305562675	100.10991692543026	1.1350000000000016	100.5919069750234
1	main	11	0	0	NaN	0.6000000000000001	0.912002159981057	0.9001099169254303	-0.01189224305562675	100.10991692543026	1.5100000000000016	100.5919069750234
1	main	12	1	1	0.8834060910157859	1	0.896032566903159	0.8785710890078917	-0.017461477895267308	78.57108900789167	5.7609834255324675	83.40609101578589
1	main	13	0	0	NaN	0.625	0.896032566903159	0.8785710890078917	-0.017461477895267308	78.57108900789167	1.8849999999999998	83.40609101578589
1	main	14	1	1	0.9834535400150344	1	0.9840269479900599	0.9709655860206112	-0.013061361969448626	170.96558602061117	7.261712725847028	183.45354001503432
1	main	15	1	1	0.9499164590379223	1	0.9519998750183731	0.9334810280706733	-0.018518846947699785	133.4810280706733	6.7586473312601445	149.91645903792227
1	main	16	0	1	0.8502331400522962	0.65	0.8560028320644051	0.8435962040675804	-0.012406627996824682	133.4810280706733	2.26	149.91645903792227
1	main	17	1	1	0.8669871099991724	1	0.8800205580191687	0.8610796800348908	-0.018940877984277904	61.07968003489073	5.514697810974903	66.98710999917235
1	main	18	1	1	0.9839512219186872	1	1.0000035170232877	0.9776252729352564	-0.02237824408803135	177.6252729352563	7.269113364852965	183.95122191868717
1	main	19	1	1	0.9171891460428014	1	0.935982636990957	0.906286726007238	-0.02969591098371893	106.28672600723799	6.267729940698482	117.1891460428014
1	main	20	1	1	0.9001516590360552	1	0.9120053129736334	0.8880189609481022	-0.023986352025531232	88.01896094810213	6.01218512408901	100.15165903605516
1	main	21	1	1	0.8509475030004978	1	0.8719974110135809	0.8445397729519755	-0.027457638061605394	44.53977295197542	5.273948139618151	50.947503000497775
1	main	22	0	1	0.8336689589777961	0.625	0.8400113369571045	0.8260607050033286	-0.013950631953775883	44.53977295197542	1.8849999999999998	50.947503000497775
1	main	23	1	1	0.8508815589593723	1	0.8480108010116965	0.8358822310110554	-0.012128570000641048	35.88223101105537	5.273023989391513	50.8815589593723
1	main	24	1	1	0.9333961410447955	1	0.9440380369778723	0.9235248640179634	-0.020513172959908843	123.52486401796337	6.510825071125291	133.39614104479546
1	main	25	1	1	0.8501328669954091	1	0.8719913529930636	0.8443836059886962	-0.02760774700436741	44.383605988696175	5.261899899449199	50.13286699540909
1	main	26	1	1	0.8503828849643469	1	0.8560140859335661	0.8351759678917006	-0.020838118041865528	35.17596789170052	5.265630878382362	50.38288496434684
1	main	27	1	1	0.8007240160368383	1	0.8160252330126241	0.7970499179791659	-0.018975315033458173	2.9500820208341327	4.520744065628387	0.7240160368382487
1	main	28	1	1	0.8335395449539647	1	0.8480624119983986	0.8324141260236502	-0.015648285974748433	32.41412602365013	5.012977449912578	33.53954495396461
1	main	29	0	1	1.0005183739122003	0.6000000000000001	1.0240136409411207	1.0000988119281828	-0.023914829012937844	32.41412602365013	1.5100000000000016	33.53954495396461
1	main	30	0	0	NaN	0.5750000000000001	1.0240136409411207	1.0000988119281828	-0.023914829012937844	32.41412602365013	1.1350000000000016	33.53954495396461
1	main	31	1	1	0.9009650850202888	1	0.9120015610242262	0.8892170729814097	-0.02278448804281652	89.21707298140969	6.024359199325554	100.96508502028878
1	main	32	0	0	NaN	0.6000000000000001	0.9120015610242262	0.8892170729814097	-0.02278448804281652	89.21707298140969	1.5100000000000016	100.96508502028878
1	main	33	1	1	0.882954997010529	1	0.8959989580325782	0.8783272929722443	-0.017671665060333908	78.32729297224428	5.754165444048121	82.954997010529
1	main	34	1	1	0.8340872639091685	1	0.8560864339815453	0.8328847449738532	-0.02320168900769204	32.88474497385319	5.021086344020441	34.0872639091685
1	main	35	0	1	0.9172524079913273	0.625	0.9360088979592547	0.9124336129752919	-0.023575284983962774	32.88474497385319	1.8849999999999998	34.0872639091685
1	main	36	1	0	NaN	1	0.9360088979592547	0.9124336129752919	-0.023575284983962774	32.88474497385319	7.51	34.0872639091685
1	main	37	1	1	0.8501665949588642	1	0.8640120710479096	0.84491176600568	-0.019100305042229593	44.91176600567992	5.262351203816943	50.16659495886411
1	main	38	0	0	NaN	0.6000000000000001	0.8640120710479096	0.84491176600568	-0.019100305042229593	44.91176600567992	1.5100000000000016	50.16659495886411
1	main	39	1	1	0.9503175070276484	1	0.9599942340282723	0.9420111130457371	-0.017983120982535183	142.0111130457371	6.764635600373149	150.31750702764833
1	main	40	1	1	0.9002602850086987	1	0.91200673696585	0.8958179670153186	-0.016188769950531423	95.81796701531853	6.01378924049437	100.26028500869866
1	main	41	1	1	0.8503782019251958	1	0.8559926348971203	0.8404687389265746	-0.01552389597054571	40.468738926574545	5.26548470497597	50.37820192519571
1	main	42	1	1	0.8837065269472077	1	0.8960135040106252	0.8797517999773845	-0.016261704033240676	79.75179997738447	5.765402888753451	83.7065269472077
1	main	43	1	1	0.8501738660270348	1	0.8720097090117633	0.8464581810403615	-0.02555152797140181	46.45818104036148	5.262391480607912	50.17386602703478
1	main	44	1	1	0.8836581910727546	1	0.8880291470559314	0.8791144990827888	-0.008914647973142564	79.11449908278878	5.764758969997056	83.65819107275452
1	main	45	1	1	0.9008236669469625	1	0.9040374930482358	0.890989304985851	-0.013048188062384725	90.989304985851	6.022200864497572	100.82366694696243
1	main	46	0	0	NaN	0.625	0.9040374930482358	0.890989304985851	-0.013048188062384725	90.989304985851	1.8849999999999998	100.82366694696243
1	main	47	1	1	0.8502290019532666	1	0.8559714830480516	0.8342563300393522	-0.021715153008699417	34.256330039352136	5.263316514426842	50.22900195326652
1	main	48	0	0	NaN	0.65	0.8559714830480516	0.8342563300393522	-0.021715153008699417	34.256330039352136	2.26	50.22900195326652
1	main	49	1	1	0.8671547248959541	1	0.8800138210644946	0.8643526639789343	-0.015661157085560262	64.35266397893425	5.517211943622678	67.15472489595409
1	main	50	1	1	0.8837566250003874	1	0.8960342350183055	0.8712898769881576	-0.02474435803014785	71.28987698815759	5.766205075304024	83.75662500038739
1	main	51	0	1	0.8836066749645397	0.65	0.8880193319637328	0.8665067380061373	-0.021512593957595527	71.28987698815759	2.26	83.75662500038739
1	main	52	0	0	NaN	0.625	0.8880193319637328	0.8665067380061373	-0.021512593957595527	71.28987698815759	1.8849999999999998	83.75662500038739
1	main	53	0	1	0.8835098650306463	0.65	0.8879994479939342	0.8680387899512425	-0.019960658042691648	71.28987698815759	2.26	83.75662500038739
1	main	54	1	1	0.8836992280557752	1	0.8880281910533085	0.8791361660696566	-0.008892024983651936	79.13616606965657	5.765383570212871	83.69922805577512
1	main	55	1	1	0.8497419089544564	1	0.8720984810497612	0.8491560129914433	-0.0229424680583179	49.156012991443234	5.2559781547077	49.741908954456406
1	main	56	0	0	NaN	0.625	0.8720984810497612	0.8491560129914433	-0.0229424680583179	49.156012991443234	1.8849999999999998	49.741908954456406
1	main	57	1	1	0.9169732249574736	1	0.9360002169851214	0.9122442519292235	-0.023755965055897832	112.2442519292235	6.264476244794205	116.97322495747353
1	main	58	1	1	0.8504415060160682	1	0.8480185850057751	0.8383900119224563	-0.00962857308331877	38.39001192245628	5.266435375194996	50.44150601606812
1	main	59	1	1	0.9167934471042827	1	0.9200283900136128	0.9088458680780604	-0.011182521935552359	108.8458680780604	6.261778330188244	116.79344710428263
1	main	60	1	1	0.8840332600520924	1	0.8959749379428104	0.8742180849658325	-0.021756852976977825	74.21808496583249	5.770404279571958	84.03326005209233
1	main	61	1	1	0.8503632480278611	1	0.8640399590367451	0.8498459160327911	-0.014194043003953993	49.845916032791095	5.265318940617144	50.363248027861076
1	main	62	1	1	0.8667265379335731	1	0.8720238760579377	0.8541535009862855	-0.017870375071652234	54.153500986285465	5.510749014317989	66.72653793357308
1	main	63	1	1	0.8335836960468441	1	0.8480298880022019	0.8273641869891435	-0.020665701013058424	27.364186989143448	5.013634914173744	33.58369604684408
1	main	64	1	1	0.8667000490240753	1	0.8800304509932175	0.8594365790486336	-0.020593871944583952	59.43657904863353	5.510373429968022	66.70004902407523
1	main	65	1	1	0.9012321319896728	1	0.9040146310580894	0.8918914690148085	-0.0121231620432809	91.8914690148085	6.028360403832048	101.23213198967274
1	main	66	1	1	0.8664404840674251	1	0.8879829440265894	0.8612859870772809	-0.026696956949308515	61.285987077280836	5.506497475542128	66.44048406742509
1	main	67	0	1	0.8499528919346631	0.65	0.8640083989594132	0.844171495991759	-0.01983690296765417	61.285987077280836	2.26	66.44048406742509
1	main	68	1	1	0.8505294390488416	1	0.8559894809732214	0.8335958219831809	-0.02239365899004042	33.5958219831809	5.2678306599752975	50.52943904884155
1	main	69	1	1	0.850520164007321	1	0.8720504170050845	0.8485292720142752	-0.023521144990809262	48.52927201427515	5.267648409460671	50.52016400732096
1	main	70	1	1	0.8667427740292624	1	0.879997203941457	0.8539877790026367	-0.026009424938820302	53.98777900263663	5.511036775531247	66.74277402926232
1	main	71	0	0	NaN	0.625	0.879997203941457	0.8539877790026367	-0.026009424938820302	53.98777900263663	1.8849999999999998	66.74277402926232
1	main	72	1	1	0.84987288096454	1	0.864037771942094	0.8430055029457435	-0.021032268996350467	43.00550294574346	5.257996014077216	49.8728809645399
1	main	73	0	1	0.8837828430114314	0.65	0.8880303009646013	0.8737831549951807	-0.014247145969420671	43.00550294574346	2.26	49.8728809645399
1	main	74	1	1	0.9004213579464704	1	0.912020250922069	0.8961491729132831	-0.015871078008785844	96.14917291328307	6.0161899450374765	100.42135794647034
1	main	75	1	1	0.9169560490408912	1	0.9280248290160671	0.9096953860716894	-0.01832944294437766	109.69538607168938	6.264230050835758	116.95604904089119
1	main	76	1	1	0.9004781370749697	1	0.9040325980167836	0.8917527460725978	-0.012279851944185793	91.75274607259776	6.017057740935124	100.47813707496967
1	main	77	1	1	0.9164824449690059	1	0.9360126090468839	0.9112652320181951	-0.02474737702868879	111.26523201819505	6.257125270310789	116.48244496900584
1	main	78	1	1	0.8501960829598829	1	0.8639993520919234	0.8460931320441887	-0.017906220047734678	46.093132044188636	5.262808450604789	50.19608295988287
1	main	79	0	0	NaN	0.625	0.8639993520919234	0.8460931320441887	-0.017906220047734678	46.093132044188636	1.8849999999999998	50.19608295988287
1	main	80	1	1	0.8337662329431623	1	0.8480310250306502	0.8302395029459149	-0.017791522084735334	30.239502945914822	5.016401590071618	33.76623294316228
1	main	81	1	1	0.8504248639801517	1	0.8720412940019742	0.8455610740929842	-0.026480219908989966	45.56107409298416	5.266262170150876	50.42486398015167
1	main	82	0	1	0.900545930955559	0.65	0.9121041570324451	0.8981057769851759	-0.013998380047269166	45.56107409298416	2.26	50.42486398015167
1	main	83	1	1	0.899113874998875	1	0.9120216070441529	0.8901484929956496	-0.02187311404850334	90.14849299564953	5.996604774370789	99.11387499887492
1	main	84	1	1	0.8497579490067437	1	0.8559251260012388	0.8340636619832367	-0.021861464018002152	34.06366198323663	5.256254740050062	49.75794900674369
1	main	85	1	1	0.9166793740587309	1	0.9280530390096828	0.9091382210608572	-0.018914817948825657	109.13822106085713	6.260083374907262	116.67937405873086
1	main	86	1	1	0.883318874053657	1	0.8960042680846527	0.8788027750561014	-0.01720149302855134	78.80277505610134	5.75968563974835	83.31887405365701
1	main	87	1	1	0.8168336829403415	1	0.8401308730244637	0.8161722379736602	-0.023958635050803423	16.172237973660188	4.762393193775788	16.83368294034149
1	main	88	0	1	0.8334851550171152	0.625	0.8400322910165414	0.8247558439616114	-0.015276447054930031	16.172237973660188	1.8849999999999998	16.83368294034149
1	main	89	1	1	0.8672106700250879	1	0.8800146030262113	0.85634162905626	-0.023672973969951272	56.34162905625995	5.51802941492293	67.21067002508785
1	main	90	1	1	0.8669499619863927	1	0.8720545750111341	0.8528995820088312	-0.019154993002302945	52.89958200883116	5.514098829696886	66.9499619863927
1	main	91	1	1	0.866619470063597	1	0.864008036092855	0.8518621420953423	-0.012145893997512758	51.862142095342236	5.509199560144916	66.61947006359692
1	main	92	1	1	0.8502419540891424	1	0.8720057479804382	0.8451147100422531	-0.026891037938185036	45.114710042253094	5.263528435132466	50.24195408914234
1	main	93	1	1	0.8170487110037357	1	0.8240956180961803	0.8152542390162125	-0.008841379079967737	15.254239016212479	4.765600719363428	17.04871100373562
1	main	94	1	1	0.8338781909551471	1	0.8480113130062819	0.8284545419737697	-0.019556771032512188	28.454541973769622	5.018052250486798	33.878190955147105
1	main	95	1	1	0.866643148008734	1	0.8800275799585506	0.861119449022226	-0.018908130936324596	61.11944902222599	5.509518371070735	66.64314800873395
1	main	96	0	1	0.7666957310866565	0.6000000000000001	0.7680094999959692	0.7511879910016432	-0.016821508994325995	61.11944902222599	1.5100000000000016	66.64314800873395
1	main	97	1	1	0.8339105700142682	1	0.8480046819895506	0.8317275249864906	-0.016277157003059983	31.727524986490565	5.018520729024894	33.91057001426812
1	main	98	1	1	0.8503428678959608	1	0.8640294281067327	0.8464263289934024	-0.017603099113330245	46.42632899340238	5.265050139967352	50.342867895960765
1	main	99	1	1	0.8503197949612513	1	0.8560069099767134	0.8345614079153165	-0.021445502061396837	34.56140791531648	5.264639349877834	50.319794961251276
1	main	100	1	1	0.966166540980339	1	0.9680365800159052	0.9521409010048956	-0.015895679011009634	152.1409010048955	7.002322014411911	166.166540980339
2	main	101	1	1	0.8001353249419481	1	0.8080357979051769	0.7927185249282047	-0.015317272976972163	7.281475071795329	4.511936335582286	0.1353249419480118
2	main	102	1	1	0.866741065052338	1	0.8640045910142362	0.8509198320098221	-0.013084759004414082	50.91983200982209	5.510919535406865	66.7410650523379
2	main	103	1	1	0.8001097060041502	1	0.8240397759946063	0.799535155063495	-0.024504620931111276	0.46484493650500447	4.511509810215793	0.1097060041501674
2	main	104	1	1	0.7834835409885272	1	0.7920075719011948	0.7706223209388554	-0.02138525096233934	29.377679061144633	4.262053464879282	16.516459011472804
2	main	105	0	0	NaN	0.5750000000000001	0.7920075719011948	0.7706223209388554	-0.02138525096233934	29.377679061144633	1.1350000000000016	16.516459011472804
2	main	106	1	1	0.8502988188993186	1	0.8560041700256988	0.8345267099794	-0.021477460046298802	34.526709979399996	5.264377569071948	50.29881889931853
2	main	107	0	1	0.8175474460003898	0.6000000000000001	0.8159893919946626	0.8050389769487083	-0.010950415045954287	34.526709979399996	1.5100000000000016	50.29881889931853
2	main	108	1	1	0.8339231989812106	1	0.8480145289795473	0.8228809559950605	-0.02513357298448682	22.88095599506046	5.018750560809858	33.92319898121055
2	main	109	1	1	0.8507654989371076	1	0.8479928899323568	0.8370414419332519	-0.010951447999104857	37.041441933251875	5.271328284977935	50.76549893710758
2	main	110	0	0	NaN	0.5750000000000001	0.8479928899323568	0.8370414419332519	-0.010951447999104857	37.041441933251875	1.1350000000000016	50.76549893710758
2	main	111	0	0	NaN	0.6000000000000001	0.8479928899323568	0.8370414419332519	-0.010951447999104857	37.041441933251875	1.5100000000000016	50.76549893710758
2	main	112	1	1	0.8501824359409511	1	0.8640322380233556	0.8445771710248664	-0.0194550669984892	44.57717102486636	5.262641259576194	50.182435940951066
2	main	113	0	1	0.8165113040013239	0.625	0.8320325259119272	0.8132991479942575	-0.018733377917669713	44.57717102486636	1.8849999999999998	50.182435940951066
2	main	114	1	1	0.8503609329927713	1	0.8560269760200754	0.8434847259195521	-0.012542250100523233	43.484725919552105	5.265260379053652	50.360932992771225
2	main	115	1	1	0.7831962449708953	1	0.7920221429085359	0.7785953829297796	-0.013426759978756309	21.404617070220453	4.257848993982188	16.803755029104693
2	main	116	0	0	NaN	0.6000000000000001	0.7920221429085359	0.7785953829297796	-0.013426759978756309	21.404617070220453	1.5100000000000016	16.803755029104693
2	main	117	1	1	0.866889466997236	1	0.8879850950324908	0.8633970899973065	-0.024588005035184324	63.39708999730642	5.513241954720579	66.88946699723597
2	main	118	1	1	0.866773133049719	1	0.8720255349762738	0.8525925130816177	-0.01943302189465612	52.59251308161761	5.511442885724827	66.773133049719
2	main	119	1	1	0.8669252999825403	1	0.8720099260099232	0.8575324800331146	-0.014477445976808667	57.53248003311451	5.51370380457025	66.92529998254027
2	main	120	1	1	0.8166206260211766	1	0.8400280500063673	0.8127411740133539	-0.027286875993013382	12.74117401335384	4.759211709713563	16.620626021176534
2	main	121	1	1	0.8503399969777092	1	0.8560309140011668	0.835898807970807	-0.020132106030359864	35.898807970806914	5.264942635074258	50.33999697770919
2	main	122	0	0	NaN	0.625	0.8560309140011668	0.835898807970807	-0.020132106030359864	35.898807970806914	1.8849999999999998	50.33999697770919
2	main	123	1	1	0.8501842189580202	1	0.8479511410696432	0.8349643989931792	-0.012986742076463997	34.96439899317916	5.262615893841721	50.18421895802017
2	main	124	1	1	0.8669837049674243	1	0.8881067590555176	0.8661919659934938	-0.02191479306202382	66.19196599349375	5.514653170355595	66.98370496742423
2	main	125	1	1	0.8329125940799713	1	0.848035775939934	0.8231625839835033	-0.024873191956430674	23.16258398350324	5.003513020453974	32.91259407997127
2	main	126	1	1	0.8499610079452395	1	0.8640077630989254	0.8458484070142731	-0.018159356084652245	45.848407014273064	5.259223795253783	49.9610079452395
2	main	127	1	1	0.8835930259665474	1	0.8960295220604166	0.8755977039691061	-0.02043181809131056	75.59770396910604	5.7637982187932355	83.59302596654739
2	main	128	1	1	0.8836157290497795	1	0.8799997670575976	0.8675176390679553	-0.012482127989642322	67.51763906795527	5.764135029856115	83.61572904977943
2	main	129	0	1	0.8497569389874116	0.65	0.848028181004338	0.8372788580600172	-0.010749322944320738	67.51763906795527	2.26	83.61572904977943
2	main	130	0	0	NaN	0.625	0.848028181004338	0.8372788580600172	-0.010749322944320738	67.51763906795527	1.8849999999999998	83.61572904977943
2	main	131	1	1	0.8834502169629559	1	0.8880016510374844	0.8769945990061387	-0.011007052031345665	76.9945990061387	5.761647413708269	83.45021696295585
2	main	132	0	1	0.8505093669518828	0.65	0.8641590940533206	0.8498057910474017	-0.01435330300591886	76.9945990061387	2.26	83.45021696295585
2	main	133	1	1	0.8838989610085264	1	0.8880350519903004	0.8711459310725331	-0.016889120917767286	71.14593107253309	5.76838329968974	83.89896100852634
2	main	134	1	1	0.8177387730684131	1	0.8401016000425443	0.816203031106852	-0.02389856893569231	16.203031106851952	4.775866436064243	17.738773068413096
2	main	135	0	1	0.8333176190499216	0.625	0.8480085449991748	0.8296599310124293	-0.018348613986745477	16.203031106851952	1.8849999999999998	17.738773068413096
2	main	136	1	1	0.8332768169930205	1	0.8560242070816457	0.8284814580110833	-0.027542749070562422	28.481458011083262	5.009039455433376	33.27681699302043
2	main	137	1	1	0.8338401790242642	1	0.8400384159758687	0.8209358060266823	-0.019102609949186444	20.935806026682215	5.017511635194532	33.840179024264174
2	main	138	0	0	NaN	0.6000000000000001	0.8400384159758687	0.8209358060266823	-0.019102609949186444	20.935806026682215	1.5100000000000016	33.840179024264174
2	main	139	1	1	0.8840072969906032	1	0.8880119509994984	0.8749463419662789	-0.013065609033219516	74.94634196627881	5.770018299915828	84.00729699060317
2	main	140	1	1	0.8503827879903838	1	0.8720708390465006	0.8487527640536427	-0.023318074992857873	48.75276405364271	5.265579174263403	50.38278799038376
2	main	141	1	1	0.83421714999713	1	0.856160028022714	0.8322568780276924	-0.023903149995021522	32.256878027692395	5.023084195088595	34.217149997129994
2	main	142	1	1	0.8343341730069369	1	0.8560076649300754	0.8306264149723575	-0.025381249957717955	30.62641497235741	5.024820010401308	34.334173006936865
2	main	143	1	1	0.7833712539868429	1	0.7919895690865815	0.7690223410027102	-0.022967228083871305	30.97765899728988	4.260476064044051	16.628746013157112
2	main	144	1	1	0.883572855964303	1	0.8880275810370222	0.8759030009387061	-0.012124580098316073	75.90300093870606	5.763495338722132	83.57285596430297
2	main	145	1	1	0.8334691650234163	1	0.8320344459498301	0.8240063140401617	-0.008028131909668446	24.006314040161627	5.011939616631716	33.46916502341624
2	main	146	0	1	0.833449317025952	0.625	0.8560784100554883	0.8325470450799912	-0.023531364975497127	24.006314040161627	1.8849999999999998	33.46916502341624
2	main	147	1	1	0.8334203100530431	1	0.839999150019139	0.8179130820790306	-0.022086067940108478	17.91308207903053	5.011210120390169	33.420310053043025
2	main	148	0	1	0.8502389210043475	0.6000000000000001	0.8560447610216215	0.8396946489810944	-0.016350112040527165	17.91308207903053	1.5100000000000016	33.420310053043025
2	main	149	1	1	0.8835854609496891	1	0.8880441039800644	0.8717390339588746	-0.01630507002118975	71.7390339588746	5.76368424935732	83.58546094968911
2	main	150	1	1	0.8337420189054683	1	0.8559998800046742	0.8305355879710987	-0.025464292033575475	30.53558797109868	5.015978408735245	33.74201890546824
2	main	151	0	0	NaN	0.5750000000000001	0.8559998800046742	0.8305355879710987	-0.025464292033575475	30.53558797109868	1.1350000000000016	33.74201890546824
2	main	152	0	0	NaN	0.6000000000000001	0.8559998800046742	0.8305355879710987	-0.025464292033575475	30.53558797109868	1.5100000000000016	33.74201890546824
2	main	153	0	0	NaN	0.625	0.8559998800046742	0.8305355879710987	-0.025464292033575475	30.53558797109868	1.8849999999999998	33.74201890546824
2	main	154	1	1	0.9339913540752605	1	0.9600138450041413	0.9335578940808773	-0.026455950923264027	133.55789408087725	6.519704201016575	133.9913540752604
2	main	155	1	1	0.7835985440760851	1	0.7919530030339956	0.7784707000246271	-0.01348230300936848	21.529299975372894	4.26385013455525	16.401455923914952
2	main	156	0	1	0.8171244180994108	0.65	0.82400631706696	0.8067818870767951	-0.017224429990164936	21.529299975372894	2.26	16.401455923914952
2	main	157	1	1	0.8002638480393216	1	0.8080075409961864	0.7906857170164585	-0.017321823979727924	9.314282983541533	4.513847830346785	0.263848039321557
2	main	158	1	1	0.7669768999330699	1	0.776014969102107	0.7593418980250135	-0.016673071077093482	40.658101974986536	4.014475090187043	33.0231000669301
2	main	159	1	1	0.9003196420380846	1	0.9040134239476174	0.8846756489947438	-0.019337774952873588	84.67564899474378	6.01462190574035	100.31964203808452
2	main	160	1	1	0.883776510017924	1	0.9041307860752568	0.882507844013162	-0.021622942062094808	82.50784401316191	5.76647201447282	83.77651001792397
2	main	161	1	1	0.8168136100284755	1	0.8160343240015209	0.8018356050597504	-0.014198718941770494	1.8356050597503337	4.76209804077167	16.81361002847548
2	main	162	1	1	0.8504250929690897	1	0.8560029419604689	0.8352033579722047	-0.020799583988264203	35.20335797220464	5.266254519918002	50.425092969089704
2	main	163	1	1	0.8347485730191693	1	0.8400027690222487	0.8190502120414749	-0.020952556980773807	19.050212041474836	5.030956780645065	34.74857301916923
2	main	164	1	1	0.8001570580527186	1	0.8160018770722672	0.7934289970435202	-0.022572880028747022	6.571002956479832	4.512158244722523	0.15705805271859496
2	main	165	1	1	0.81656068994198	1	0.8240285789361224	0.809940499952063	-0.014088078984059393	9.94049995206292	4.758317184275947	16.560689941979902
2	main	166	1	1	0.8337725370656699	1	0.8320372219895944	0.8207295690663159	-0.01130765292327851	20.729569066315847	5.016484405021183	33.77253706566985
2	main	167	0	1	0.8502527140080929	0.625	0.8560460229637101	0.8376939890440553	-0.018352033919654787	20.729569066315847	1.8849999999999998	33.77253706566985
2	main	168	1	1	0.884061343036592	1	0.8880023349775001	0.8702581319957972	-0.017744202981702983	70.25813199579711	5.77082383049652	84.06134303659196
2	main	169	1	1	0.8503525529522449	1	0.8640276939840987	0.8429092349251732	-0.02111845905892551	42.90923492517318	5.265174429621547	50.352552952244835
2	main	170	1	1	0.8336834529181942	1	0.8480971719836816	0.8320914619835094	-0.016005710000172257	32.09146198350932	5.015103173898533	33.68345291819419
2	main	171	0	1	0.8333001929568127	0.6000000000000001	0.8400328409625217	0.8252522469265386	-0.014780594035983086	32.09146198350932	1.5100000000000016	33.68345291819419
2	main	172	1	1	0.8503384760115296	1	0.8480267649283633	0.8370429779170081	-0.010983787011355162	37.04297791700806	5.264932688549161	50.33847601152952
2	main	173	0	1	0.783337885979563	0.5750000000000001	0.7920051000546664	0.7708406449528411	-0.021164455101825297	37.04297791700806	1.1350000000000016	50.33847601152952
2	main	174	1	1	0.8671990280272439	1	0.8802303679985926	0.8663552639773116	-0.013875104021281004	66.35526397731151	5.51782706530299	67.19902802724387
2	main	175	1	1	0.9001447570044547	1	0.9120150549570099	0.8962496060412377	-0.01576544891577214	96.24960604123767	6.012066010260023	100.14475700445469
2	main	176	1	1	0.8173868909943849	1	0.8240357140311971	0.8136176479747519	-0.010418066056445241	13.617647974751845	4.77058040454518	17.386890994384842
2	main	177	1	1	0.8338844790123403	1	0.856019236962311	0.8294954180018976	-0.026523818960413337	29.49541800189759	5.018047586306929	33.884479012340265
2	main	178	1	1	0.8339133190456778	1	0.8320430719759315	0.8213485040469095	-0.010694567929022014	21.34850404690947	5.018610836230218	33.91331904567774
2	main	179	0	0	NaN	0.55	0.8320430719759315	0.8213485040469095	-0.010694567929022014	21.34850404690947	0.7599999999999998	33.91331904567774
2	main	180	1	1	0.8673620750196278	1	0.8720153450267389	0.8554274400230497	-0.01658790500368923	55.42744002304967	5.5202085089311	67.36207501962777
2	main	181	1	1	0.8504861810943112	1	0.8560333689674735	0.8475956210168079	-0.008437747950665653	47.59562101680781	5.267193549768999	50.486181094311135
2	main	182	0	0	NaN	0.5750000000000001	0.8560333689674735	0.8475956210168079	-0.008437747950665653	47.59562101680781	1.1350000000000016	50.486181094311135
2	main	183	1	1	0.8336374490754679	1	0.8480927140917629	0.8325639840913936	-0.01552873000036925	32.56398409139361	5.014402256454341	33.63744907546784
2	main	184	1	1	0.9006663400214165	1	0.9040054460056126	0.8841368339490145	-0.019868612056598067	84.1368339490145	6.019801673935726	100.6663400214165
2	main	185	1	1	0.8169241680298001	1	0.8320016410434619	0.8093240780290216	-0.02267756301444024	9.324078029021576	4.7637004301557315	16.924168029800015
2	main	186	1	1	0.8504710859851912	1	0.8640342719154432	0.8413850349606946	-0.02264923695474863	41.38503496069457	5.266929100723937	50.471085985191124
2	main	187	1	1	0.8668137890053913	1	0.8799899599980563	0.8584830899490044	-0.02150687004905194	58.48308994900431	5.512088184002787	66.81378900539126
2	main	188	0	1	0.8332092330092564	0.6000000000000001	0.8400448539759964	0.8237567170290276	-0.016288136946968734	58.48308994900431	1.5100000000000016	66.81378900539126
2	main	189	1	1	0.8337338690180331	1	0.8400313969468698	0.8283050419995561	-0.011726354947313666	28.30504199955608	5.015906230071559	33.733869018033104
2	main	190	1	1	0.8169320860179141	1	0.8240363369695842	0.8085810070624575	-0.015455329907126725	8.581007062457457	4.763878465271555	16.932086017914074
2	main	191	1	1	0.8833968410035595	1	0.8880087130237371	0.8709762629587203	-0.017032450065016747	70.97626295872028	5.760807084259577	83.39684100355949
2	main	192	1	1	0.8337082510115579	1	0.8400022940477356	0.8295120740076527	-0.010490220040082932	29.512074007652657	5.01552712008357	33.708251011557834
2	main	193	1	1	0.8177656069165096	1	0.8399977560620755	0.8172818219754845	-0.022715934086591005	17.281821975484448	4.776326993703842	17.765606916509526
2	main	194	1	1	0.8169146130094305	1	0.840095657040365	0.8148797760950401	-0.025215880945324898	14.879776095040098	4.763248015185818	16.914613009430425
2	main	195	1	1	0.7839887359878048	1	0.7920410890365019	0.7750333480071276	-0.0170077410293743	24.9666519928724	4.269539665654301	16.011264012195213
2	main	196	0	1	0.7669200050877407	0.5750000000000001	0.7840357930399477	0.7608231280464679	-0.023212664993479848	24.9666519928724	1.1350000000000016	16.011264012195213
2	main	197	1	1	0.8002757979556918	1	0.8080007830867544	0.7847668150207028	-0.023233968066051602	15.233184979297265	4.514016624414362	0.27579795569177
2	main	198	1	1	0.8506362410262227	1	0.8640510439872742	0.8493634309852496	-0.014687613002024591	49.363430985249536	5.269379829512909	50.63624102622266
2	main	199	1	1	0.7840378530090675	1	0.7919853479834273	0.7760538230650127	-0.015931524918414652	23.94617693498735	4.270439531062729	15.962146990932569
2	main	200	1	1	0.900342637905851	1	0.9040073440410197	0.8913153239991516	-0.01269202004186809	91.31532399915154	6.015032859975472	100.34263790585096
3	main	201	1	1	0.8000815730774775	1	0.8160322780022398	0.7953024100279436	-0.020729867974296212	4.697589972056493	4.511126304967329	0.08157307747747033
3	main	202	1	1	0.8002039479324594	1	0.8080335649428889	0.7961591319181025	-0.011874433024786413	3.8408680818975416	4.512957069780677	0.2039479324593696
3	main	203	1	1	0.7332693779608235	1	0.75201097689569	0.7295981919160113	-0.02241278497967869	70.40180808398877	3.5089295637933535	66.73062203917657
3	main	204	1	1	0.8003594969632104	1	0.8160177730023861	0.796942239976488	-0.01907553302589804	3.0577600235119906	4.51530195957981	0.3594969632103595
3	main	205	0	1	0.8004757770104334	0.55	0.8080145160201937	0.7899388889782131	-0.018075627041980624	3.0577600235119906	0.7599999999999998	0.3594969632103595
3	main	206	1	1	0.8664399239933118	1	0.8719632279826328	0.8603454469703138	-0.011617781012319028	60.345446970313745	5.506503564645536	66.43992399331178
3	main	207	0	0	NaN	0.5250000000000001	0.8719632279826328	0.8603454469703138	-0.011617781012319028	60.345446970313745	0.38500000000000156	66.43992399331178
3	main	208	1	1	0.8003147299168631	1	0.8160260159056634	0.7900955158984289	-0.025930500007234514	9.904484101571187	4.514603334935382	0.31472991686309904
3	main	209	1	1	0.7832894349703565	1	0.792037729988806	0.7755904999794438	-0.0164472300093621	24.409500020556194	4.259237019685097	16.71056502964352
3	main	210	0	0	NaN	0.55	0.792037729988806	0.7755904999794438	-0.0164472300093621	24.409500020556194	0.7599999999999998	16.71056502964352
3	main	211	0	1	0.766795011004433	0.5750000000000001	0.7840268521104008	0.7625875570811331	-0.02143929502926767	24.409500020556194	1.1350000000000016	16.71056502964352
3	main	212	1	1	0.8171762999845669	1	0.8240041329991072	0.8018399899592623	-0.02216414303984493	1.839989959262267	4.767472569472156	17.176299984566825
3	main	213	0	1	0.766640510992147	0.55	0.7760159829631448	0.7623972160508856	-0.013618766912259161	1.839989959262267	0.7599999999999998	17.176299984566825
3	main	214	1	1	0.8001236279960722	1	0.8000121340155602	0.7868756139650941	-0.01313652005046606	13.124386034905955	4.511747349859215	0.12362799607212871
3	main	215	1	1	0.7672048789681867	1	0.7760289050638676	0.7608635310316458	-0.015165374032221735	39.13646896835421	4.017977829896845	32.795121031813366
3	main	216	0	0	NaN	0.5250000000000001	0.7760289050638676	0.7608635310316458	-0.015165374032221735	39.13646896835421	0.38500000000000156	32.795121031813366
3	main	217	1	1	0.816766637028195	1	0.8320215150015429	0.8123191669583321	-0.019702348043210804	12.319166958332017	4.761306729740463	16.76663702819492
3	main	218	1	1	0.800439749029465	1	0.8080074760364369	0.7835570930037647	-0.024450383032672107	16.442906996235294	4.516437249947339	0.4397490294649753
3	main	219	1	1	0.8337888070382178	1	0.8400175379356369	0.8190067349933088	-0.021010802942328155	19.00673499330874	5.016676045013591	33.78880703821774
3	main	220	1	1	0.8007181030698121	1	0.8240926889702678	0.8001500399550423	-0.02394264901522547	0.1500399550422582	4.520611315490678	0.718103069812015
3	main	221	1	1	0.8002135619753972	1	0.8080462459474802	0.7851164379389957	-0.022929808008484542	14.883562061004385	4.513108885255642	0.21356197539712518
3	main	222	0	0	NaN	0.55	0.8080462459474802	0.7851164379389957	-0.022929808008484542	14.883562061004385	0.7599999999999998	0.21356197539712518
3	main	223	1	1	0.7502287600655109	1	0.7680233039427549	0.7473438499728218	-0.020679453969933093	52.65615002717827	3.763326925798319	49.771239934489174
3	main	224	1	1	0.9163754299515858	1	0.9360292840283364	0.9102681799558923	-0.02576110407244414	110.26817995589222	6.255527153951116	116.37542995158579
3	main	225	1	1	0.766811999026686	1	0.7840022759046406	0.75937237998005	-0.024629895924590528	40.627620019950015	4.012012675628066	33.18800097331409
3	main	226	1	1	0.7840630190912634	1	0.7919996489072219	0.7776115069864318	-0.014388141920790076	22.388493013568265	4.270756614967249	15.936980908736631
3	main	227	1	1	0.8170951349893585	1	0.8159944820217788	0.8076247809221968	-0.008369701099582016	7.624780922196761	4.766269254721701	17.095134989358442
3	main	228	1	1	0.8001349319238216	1	0.8010420929640532	0.7851871199673042	-0.015854972996748984	14.812880032695874	4.511918394817039	0.13493192382152408
3	main	229	0	1	0.8170335988979787	0.5750000000000001	0.8239953090669587	0.7999212839640677	-0.024074025102891028	14.812880032695874	1.1350000000000016	0.13493192382152408
3	main	230	0	0	NaN	0.55	0.8239953090669587	0.7999212839640677	-0.024074025102891028	14.812880032695874	0.7599999999999998	0.13493192382152408
3	main	231	1	1	0.7836296439636499	1	0.7921563010895625	0.7819602380041033	-0.010196063085459173	18.03976199589674	4.26430572940968	16.370356036350174
3	main	232	0	0	NaN	0.5750000000000001	0.7921563010895625	0.7819602380041033	-0.010196063085459173	18.03976199589674	1.1350000000000016	16.370356036350174
3	main	233	1	1	0.7672260710969567	1	0.7760982419131324	0.7667636770056561	-0.009334564907476306	33.23632299434398	4.01828504585661	32.77392890304331
3	main	234	1	1	0.8672925109276548	1	0.8800243609584868	0.8573796299751848	-0.022644730983301997	57.379629975184756	5.519292459464632	67.29251092765476
3	main	235	0	1	0.81697302905377	0.6000000000000001	0.8240401200018823	0.8078968190820888	-0.016143300919793546	57.379629975184756	1.5100000000000016	67.29251092765476
3	main	236	1	1	0.8005728110438213	1	0.8161354899639264	0.7984698520740494	-0.01766563788987696	1.5301479259506312	4.518424330269918	0.5728110438212308
3	main	237	1	1	0.8341757080052048	1	0.8561374229611829	0.832518327049911	-0.02361909591127187	32.51832704991098	5.022405714951455	34.175708005204754
3	main	238	0	0	NaN	0.5750000000000001	0.8561374229611829	0.832518327049911	-0.02361909591127187	32.51832704991098	1.1350000000000016	34.175708005204754
3	main	239	1	1	0.8665171460015699	1	0.8800390129908919	0.860850787954405	-0.019188225036486983	60.85078795440491	5.507656044899486	66.51714600156988
3	main	240	1	1	0.8335712930420414	1	0.8320242259651423	0.8196750020142645	-0.012349223950877786	19.67500201426442	5.01346873071976	33.57129304204132
3	main	241	1	1	0.8662226899759844	1	0.8800403759814799	0.8599255550652742	-0.020114820916205645	59.925555065274196	5.503182729696855	66.22268997598435
3	main	242	1	1	0.7835892520379275	1	0.8000355829717591	0.7800307689467445	-0.02000481402501464	19.96923105325554	4.263757629776373	16.410747962072534
3	main	243	1	1	0.7837554470170289	1	0.8000903639476746	0.7826051809825003	-0.017485182965174317	17.394819017499728	4.266121525540948	16.244552982971115
3	main	244	1	1	0.8332904969574884	1	0.8400135550182313	0.8186838160036132	-0.0213297390146181	18.68381600361313	5.0092414750158785	33.290496957488315
3	main	245	1	1	0.8502975020091981	1	0.8560179619817063	0.8437767170835286	-0.012241244898177683	43.776717083528595	5.264277759813703	50.29750200919803
3	main	246	0	1	0.866625817026943	0.6000000000000001	0.8720018800813705	0.8501323580276221	-0.02186952205374837	43.776717083528595	1.5100000000000016	50.29750200919803
3	main	247	1	1	0.833920725970529	1	0.8479928480228409	0.830137773999013	-0.01785507402382791	30.137773999012964	5.018634520345367	33.92072597052898
3	main	248	0	0	NaN	0.5750000000000001	0.8479928480228409	0.830137773999013	-0.01785507402382791	30.137773999012964	1.1350000000000016	33.92072597052898
3	main	249	1	1	0.8003000150201842	1	0.8240218879655004	0.7947981259785593	-0.0292237619869411	5.201874021440789	4.514376145196147	0.3000150201841745
3	main	250	1	1	0.8336228750413284	1	0.8400183289777488	0.818148749996908	-0.021869578980840743	18.148749996907966	5.01424301601015	33.62287504132833
3	main	251	0	0	NaN	0.6000000000000001	0.8400183289777488	0.818148749996908	-0.021869578980840743	18.148749996907966	1.5100000000000016	33.62287504132833
3	main	252	0	1	0.8670310230227187	0.625	0.8719922099262476	0.8585773400263861	-0.013414869899861515	18.148749996907966	1.8849999999999998	33.62287504132833
3	main	253	0	0	NaN	0.6000000000000001	0.8719922099262476	0.8585773400263861	-0.013414869899861515	18.148749996907966	1.5100000000000016	33.62287504132833
3	main	254	1	1	0.8335979590192437	1	0.8319712310330942	0.8205799460411072	-0.01139128499198705	20.579946041107135	5.013816040116362	33.597959019243675
3	main	255	1	1	0.8340311360079795	1	0.8480037800036371	0.8207454190123826	-0.02725836099125445	20.745419012382584	5.020296744294464	34.03113600797947
3	main	256	0	1	0.8671796469716355	0.625	0.8640038489829749	0.8524787069763988	-0.011525142006576061	20.745419012382584	1.8849999999999998	34.03113600797947
3	main	257	1	1	0.8674434350105003	1	0.863997500971891	0.8506277929991484	-0.013369707972742617	50.627792999148326	5.521515520047396	67.44343501050021
3	main	258	1	1	0.8999557089991868	1	0.8959822590695694	0.885583360097371	-0.010398898972198367	85.583360097371	6.009235256458632	99.95570899918671
3	main	259	1	1	0.7996300199301913	1	0.8159981028875336	0.795960494899191	-0.020037607988342643	4.039505100809082	4.504283783715218	0.36998006980870635
3	main	260	1	1	0.8499677689978853	1	0.8639839559327811	0.8466697660041973	-0.0173141899285838	46.66976600419726	5.2593816858623175	49.967768997885244
3	main	261	1	1	0.866681942017749	1	0.8800420369952917	0.8558973140316084	-0.024144722963683307	55.89731403160836	5.5100883108004926	66.68194201774891
3	main	262	1	1	0.7833508129697293	1	0.8001346869859844	0.7814266679342836	-0.01870801905170083	18.57333206571643	4.260118254567496	16.64918703027074
3	main	263	1	1	0.8336016309913248	1	0.8400165399070829	0.817684574984014	-0.02233196492306888	17.68457498401399	5.013911305684596	33.60163099132474
3	main	264	1	1	0.8344588270410895	1	0.8400309850694612	0.8286126130260527	-0.011418372043408453	28.61261302605267	5.0267338747996835	34.45882704108949
3	main	265	1	1	0.7834147590911016	1	0.7839874780038372	0.766964347101748	-0.01702313090208918	33.03565289825205	4.261062234980054	16.585240908898456
3	main	266	1	1	0.8338190549984574	1	0.832000556983985	0.8172155719948933	-0.014784984989091754	17.21557199489321	5.017189869647845	33.81905499845739
3	main	267	0	0	NaN	0.6000000000000001	0.832000556983985	0.8172155719948933	-0.014784984989091754	17.21557199489321	1.5100000000000016	33.81905499845739
3	main	268	1	1	0.7839207031065598	1	0.7840246061095968	0.770978041109629	-0.013046564999967813	29.021958890371067	4.268715911419131	16.07929689344023
3	main	269	1	1	0.8168521079933271	1	0.824012357974425	0.8033045110059902	-0.02070784696843475	3.304511005990163	4.762470085513778	16.85210799332704
3	main	270	1	1	0.8672545269364491	1	0.8799976219888777	0.8607695190003142	-0.019228102988563478	60.76951900031413	5.518664904627949	67.25452693644907
3	main	271	0	1	0.817088809912093	0.625	0.8240136109525338	0.8028419619658962	-0.021171648986637592	60.76951900031413	1.8849999999999998	67.25452693644907
3	main	272	1	1	0.8000120149226859	1	0.8159978609764948	0.795542569947429	-0.020455291029065847	4.457430052571043	4.51006638886407	0.012014922685876783
3	main	273	0	0	NaN	0.6000000000000001	0.8159978609764948	0.795542569947429	-0.020455291029065847	4.457430052571043	1.5100000000000016	0.012014922685876783
3	main	274	1	1	0.8500879530329257	1	0.8560266770655289	0.8363473460776731	-0.019679330987855792	36.347346077673095	5.2611922013945875	50.08795303292568
3	main	275	1	1	0.8670309110311791	1	0.8720057010650635	0.8518464320804924	-0.0201592689845711	51.846432080492335	5.515291375447996	67.03091103117909
3	main	276	1	1	0.8004076230572537	1	0.8080040049972013	0.7866952400654554	-0.021308764931745827	13.304759934544608	4.516005010916851	0.40762305725361436
3	main	277	1	1	0.8669813519809395	1	0.8639862759737298	0.8522407009731978	-0.011745575000531971	52.240700973197775	5.5145583692844955	66.98135198093946
3	main	278	1	1	0.817158555961214	1	0.8240099450340495	0.8038868040312082	-0.020123141002841294	3.886804031208113	4.767278710021637	17.158555961213963
3	main	279	0	1	0.8336219900520518	0.625	0.8400002149865031	0.822784367017448	-0.017215847969055176	3.886804031208113	1.8849999999999998	17.158555961213963
3	main	280	1	1	0.8337796230334789	1	0.8400030320044607	0.8192236190661788	-0.020779412938281894	19.223619066178756	5.016537235458381	33.77962303347881
3	main	281	1	1	0.8674881720216945	1	0.8800049480050802	0.8550246879458427	-0.02498026005923748	55.0246879458427	5.522057724408805	67.48817202169444
3	main	282	0	1	0.7833412239560857	0.6000000000000001	0.7920148019911721	0.7684390950016677	-0.023575706989504397	55.0246879458427	1.5100000000000016	67.48817202169444
3	main	283	1	1	0.8168305029394105	1	0.8240272850962356	0.804361329996027	-0.01966595510020852	4.361329996027008	4.762359804115258	16.830502939410465
3	main	284	1	1	0.8498947200132534	1	0.8640269889729097	0.837751668994315	-0.02627531997859478	37.751668994314926	5.258330125468783	49.89472001325335
3	main	285	1	1	0.8503874379675835	1	0.8559925409499556	0.8451793499989435	-0.010813190951012075	45.179349998943465	5.265707754404284	50.387437967583494
3	main	286	1	1	0.8170513960067183	1	0.8159972010180354	0.8018598490161821	-0.014137352001853287	1.8598490161820802	4.765616800393909	17.051396006718235
3	main	287	1	1	0.8167242839699611	1	0.8319942739326507	0.8113792389631271	-0.02061503496952355	11.379238963127092	4.760704105827026	16.724283969961064
3	main	288	0	1	0.7838668300537392	0.5750000000000001	0.7840218949131668	0.7718390260124579	-0.012182868900708854	11.379238963127092	1.1350000000000016	16.724283969961064
3	main	289	1	1	0.8002186079975218	1	0.8080052130389959	0.7934900609543547	-0.014515152084641159	6.509939045645341	4.513158609149977	0.21860799752171367
3	main	290	1	1	0.8170335160102695	1	0.8160277210408822	0.8065706540364772	-0.009457067004404962	6.570654036477164	4.765348404869437	17.03351601026948
3	main	291	1	1	0.833476195926778	1	0.8560423040762544	0.8278828089823946	-0.028159495093859732	27.882808982394593	5.01203852483537	33.476195926777976
3	main	292	1	1	0.8336133729899302	1	0.8400465130107477	0.8284869670169428	-0.011559545993804932	28.486967016942756	5.01400140939746	33.61337298993017
3	main	293	1	1	0.783793387003243	1	0.7919956180267036	0.7742822800064459	-0.017713338020257652	25.7177199935541	4.266749305641278	16.206612996757073
3	main	294	1	1	0.833692688960582	1	0.8400024529546499	0.8277939399704337	-0.012208512984216213	27.79393997043367	5.015268086097203	33.692688960581975
3	main	295	1	1	0.8334404189372435	1	0.8560015039984137	0.8299286860274151	-0.026072817970998585	29.928686027415054	5.011421679626219	33.44041893724348
3	main	296	0	0	NaN	0.55	0.8560015039984137	0.8299286860274151	-0.026072817970998585	29.928686027415054	0.7599999999999998	33.44041893724348
3	main	297	1	1	0.8002398120006546	1	0.8000201940303668	0.7867596209980547	-0.013260573032312095	13.240379001945302	4.513483465523459	0.2398120006545934
3	main	298	1	1	0.817010972998105	1	0.8240109460894018	0.8023571909870952	-0.021653755102306604	2.3571909870951924	4.765018674768507	17.010972998104947
3	main	299	1	1	0.8001286130165681	1	0.8160170109476894	0.794882099959068	-0.021134910988621414	5.117900040932044	4.511823055907152	0.12861301656807989
3	main	300	1	1	0.8175423139473423	1	0.8399766749935225	0.814131743973121	-0.025844931020401418	14.131743973121003	4.7729393043462185	17.542313947342294
4	main	301	1	1	0.8003697150852531	1	0.8159820419969037	0.7950444270391017	-0.020937614957801998	4.9555729608983246	4.515371920531615	0.36971508525307506
4	main	302	1	1	0.8506564309354872	1	0.8640050730900839	0.8394196380395442	-0.024585435050539672	39.41963803954418	5.269687344077974	50.65643093548711
4	main	303	1	1	0.7499387999996543	1	0.7599801159230992	0.7434812719002366	-0.016498844022862613	56.518728099763436	3.758925818945281	50.06120000034575
4	main	304	1	1	0.9670126399723813	1	0.9759550699964166	0.9544741290155798	-0.02148094098083675	154.47412901557976	7.015040874937549	167.01263997238124
4	main	305	0	1	0.8005369260208681	0.5750000000000001	0.8079994199797511	0.788927954970859	-0.01907146500889212	154.47412901557976	1.1350000000000016	167.01263997238124
4	main	306	1	1	0.7670533109921962	1	0.7839975599199533	0.7622644219081849	-0.02173313801176846	37.73557809181516	4.015628274171613	32.94668900780384
4	main	307	0	0	NaN	0.55	0.7839975599199533	0.7622644219081849	-0.02173313801176846	37.73557809181516	0.7599999999999998	32.94668900780384
4	main	308	1	1	0.7835516369668767	1	0.8000247060554102	0.7702384740114212	-0.029786232043989003	29.76152598857884	4.263179229563102	16.448363033123357
4	main	309	1	1	0.7667706940555945	1	0.7760087499627843	0.7573832540074363	-0.018625495955348015	42.61674599256371	4.01146841595415	33.22930594440554
4	main	310	0	0	NaN	0.5750000000000001	0.7760087499627843	0.7573832540074363	-0.018625495955348015	42.61674599256371	1.1350000000000016	33.22930594440554
4	main	311	0	1	0.8003648960730061	0.6000000000000001	0.8159892170224339	0.7948239530669525	-0.02116526395548135	42.61674599256371	1.5100000000000016	33.22930594440554
4	main	312	1	1	0.8332660609157756	1	0.855927151045762	0.8262366389390081	-0.029690512106753886	26.236638939008074	5.0088485942594705	33.266060915775554
4	main	313	0	1	0.7504674849333242	0.5750000000000001	0.7679848879342899	0.7441660139011219	-0.023818874033167958	26.236638939008074	1.1350000000000016	33.266060915775554
4	main	314	1	1	0.9002780980663374	1	0.8960083649726585	0.8864136930787936	-0.00959467189386487	86.41369307879354	6.014041525302455	100.27809806633736
4	main	315	1	1	0.8166276339907199	1	0.8240327480016276	0.8110123749356717	-0.013020373065955937	11.012374935671643	4.75932556040585	16.627633990719872
4	main	316	0	1	0.7835540709784254	0.55	0.7920281930128112	0.7798438230529428	-0.01218436995986849	11.012374935671643	0.7599999999999998	16.627633990719872
4	main	317	1	1	0.9001671120058745	1	0.9040108730550855	0.8856115511152893	-0.01839932193979621	85.61155111528929	6.012399325370788	100.16711200587447
4	main	318	1	1	0.8333764809649438	1	0.8478444550419226	0.8234806320397183	-0.0243638230022043	23.480632039718287	5.0105375494947655	33.376480964943724
4	main	319	1	1	0.8666281220503151	1	0.8880275379633531	0.8635438489727676	-0.024483688990585506	63.54384897276755	5.509331231112592	66.6281220503151
4	main	320	1	1	0.8339030890492722	1	0.8399928970029578	0.8283213300164789	-0.011671566986478865	28.321330016478854	5.018445955463685	33.9030890492722
4	main	321	1	1	0.8835023479769006	1	0.8880052550230175	0.8686472889967263	-0.01935796602629125	68.64728899672623	5.762436068723909	83.5023479769006
4	main	322	0	0	NaN	0.5250000000000001	0.8880052550230175	0.8686472889967263	-0.01935796602629125	68.64728899672623	0.38500000000000156	83.5023479769006
4	main	323	1	1	0.7834030830999836	1	0.7920135529711843	0.7771853270241991	-0.014828225946985185	22.814672975800974	4.260941095524467	16.59691690001641
4	main	324	1	1	0.866902632988058	1	0.8800632130587474	0.8653227239847183	-0.014740489074029028	65.32272398471828	5.513400744637474	66.90263298805799
4	main	325	1	1	0.7833550539799035	1	0.7920286919688806	0.7749625359429047	-0.017066156025975943	25.03746405709539	4.2602136091934515	16.644946020096583
4	main	326	1	1	0.8171243820106611	1	0.8240012329770252	0.8036268869182095	-0.020374346058815718	3.6268869182094488	4.766717964191921	17.124382010661023
4	main	327	1	1	0.7836752909934148	1	0.7919996860437095	0.7668725970434025	-0.025127089000307024	33.12740295659755	4.265027996259741	16.324709006585223
4	main	328	1	1	0.8668012979906052	1	0.880019778967835	0.8602826679125428	-0.01973711105529219	60.28266791254278	5.511914828782901	66.80129799060519
4	main	329	0	0	NaN	0.55	0.880019778967835	0.8602826679125428	-0.01973711105529219	60.28266791254278	0.7599999999999998	66.80129799060519
4	main	330	0	0	NaN	0.5750000000000001	0.880019778967835	0.8602826679125428	-0.01973711105529219	60.28266791254278	1.1350000000000016	66.80129799060519
4	main	331	1	1	0.8005173209821805	1	0.8080369859235361	0.7936545269330963	-0.014382458990439773	6.345473066903695	4.517603694801219	0.5173209821804914
4	main	332	0	1	0.8336040490539744	0.6000000000000001	0.8400303579401225	0.8253280579810962	-0.014702299959026277	6.345473066903695	1.5100000000000016	0.5173209821804914
4	main	333	1	1	0.8839453710243106	1	0.9041118760360405	0.8819189090281725	-0.022192967007867992	81.91890902817245	5.769035799419507	83.94537102431055
4	main	334	1	1	0.8503639890113845	1	0.856039397069253	0.8393695710692555	-0.016669825999997556	39.36957106925543	5.265341980373487	50.363989011384504
4	main	335	0	0	NaN	0.5750000000000001	0.856039397069253	0.8393695710692555	-0.016669825999997556	39.36957106925543	1.1350000000000016	50.363989011384504
4	main	336	1	1	0.8173759009223431	1	0.8240004719700664	0.8084772569127381	-0.015523215057328343	8.47725691273804	4.770497184470296	17.375900922343092
4	main	337	1	1	0.8672209810465574	1	0.8800199569668621	0.859126741066575	-0.020893215900287032	59.12674106657501	5.51815952650737	67.22098104655738
4	main	338	0	1	0.8505635579349473	0.6000000000000001	0.8720167729770765	0.8408905089600012	-0.0311262640170753	59.12674106657501	1.5100000000000016	67.22098104655738
4	main	339	1	1	0.8503557170042768	1	0.8466728839557618	0.8336558910086751	-0.013016992947086692	33.655891008675056	5.265241420236416	50.35571700427677
4	main	340	1	1	0.8338388029951602	1	0.8481186080025509	0.8332979190163314	-0.014820688986219466	33.29791901633139	5.017447569514625	33.83880299516018
4	main	341	1	1	0.8337770480429754	1	0.8480133139528334	0.824333491967991	-0.02367982198484242	24.333491967990952	5.016544269272126	33.77704804297532
4	main	342	1	1	0.8669348930707201	1	0.8800022089853883	0.8565176770789549	-0.023484531906433403	56.51767707895483	5.513889640094712	66.9348930707201
4	main	343	1	1	0.8838104519527406	1	0.8959932669531554	0.8795344249811023	-0.01645884197205305	79.5344249811023	5.767040649768896	83.81045195274051
4	main	344	1	1	0.79924194898922	1	0.8000065990490839	0.7833707460667938	-0.01663585298229009	16.629253933206243	4.498487500348128	0.7580510107800809
4	main	345	1	1	0.8335806869436055	1	0.8400035389931872	0.8172540719388053	-0.022749467054381967	17.25407193880524	5.0136048842594025	33.5806869436055
4	main	346	0	0	NaN	0.5750000000000001	0.8400035389931872	0.8172540719388053	-0.022749467054381967	17.25407193880524	1.1350000000000016	33.5806869436055
4	main	347	1	1	0.8517113630659878	1	0.8640027359360829	0.8340605170233175	-0.029942218912765384	34.06051702331747	5.285556624983437	51.71136306598778
4	main	348	0	1	0.8506019990891218	0.6000000000000001	0.8479865429690108	0.8342723300447688	-0.01371421292424202	34.06051702331747	1.5100000000000016	51.71136306598778
4	main	349	1	1	0.8674130100989714	1	0.8800096429185942	0.8585282400017604	-0.02148140291683376	58.52824000176038	5.521025515734218	67.41301009897138
4	main	350	1	1	0.8504002389963716	1	0.8720513869775459	0.8482691369717941	-0.023782250005751848	48.269136971794026	5.265905050435103	50.400238996371584
4	main	351	0	1	0.8168949179816991	0.5750000000000001	0.824029520037584	0.8089271120261401	-0.015102408011443913	48.269136971794026	1.1350000000000016	50.400238996371584
4	main	352	0	1	0.7836277920287102	0.55	0.7920045460341498	0.7753762979991734	-0.016628248034976423	48.269136971794026	0.7599999999999998	50.400238996371584
4	main	353	0	0	NaN	0.5250000000000001	0.7920045460341498	0.7753762979991734	-0.016628248034976423	48.269136971794026	0.38500000000000156	50.400238996371584
4	main	354	1	1	0.7833076770184562	1	0.7920187939889729	0.7771997529780492	-0.014819041010923684	22.800247021950824	4.259510873924009	16.69232298154388
4	main	355	1	1	0.8168095430592075	1	0.8400177389848977	0.8109968740027398	-0.029020864982157946	10.996874002739743	4.761971830264665	16.809543059207456
4	main	356	0	0	NaN	0.55	0.8400177389848977	0.8109968740027398	-0.029020864982157946	10.996874002739743	0.7599999999999998	16.809543059207456
4	main	357	1	1	0.8169395930599421	1	0.8240100969560444	0.8002725680125877	-0.02373752894345671	0.2725680125876817	4.76398716982454	16.939593059942084
4	main	358	1	1	0.8336027809418738	1	0.8400078980484977	0.8269915749551728	-0.0130163230933249	26.991574955172794	5.013936189459637	33.602780941873746
4	main	359	1	1	0.8002447340404615	1	0.8160165840527043	0.7887056310428306	-0.02731095300987363	11.294368957169398	4.513526485641487	0.2447340404614362
4	main	360	1	1	0.8998830639757216	1	0.9120418719248846	0.89405929192435	-0.017982580000534654	94.05929192434992	6.00815382855013	99.88306397572156
4	main	361	1	1	0.8001213578972965	1	0.8238995579304174	0.79632194689475	-0.02757761103566736	3.6780531052500454	4.511726019661873	0.12135789729650348
4	main	362	1	1	0.8168528649257496	1	0.824051573057659	0.8089226390002295	-0.015128934057429433	8.922639000229493	4.7626928485604	16.852864925749557
4	main	363	1	1	0.8334120459621772	1	0.8399947449797764	0.8188212299719453	-0.021173515007831156	18.821229971945243	5.011069449353963	33.412045962177174
4	main	364	1	1	0.7837860960280523	1	0.7840530460234731	0.7712884700158611	-0.01276457600761205	28.71152998413895	4.266489864783361	16.213903971947772
4	main	365	1	1	0.8168647530255839	1	0.8320915339281783	0.8146217429311946	-0.017469790996983647	14.621742931194559	4.762562709036283	16.86475302558388
4	main	366	1	1	0.8339479200076312	1	0.8560533639974892	0.8313523060642183	-0.02470105793327093	31.35230606421824	5.0190495258336885	33.94792000763114
4	main	367	0	0	NaN	0.5750000000000001	0.8560533639974892	0.8313523060642183	-0.02470105793327093	31.35230606421824	1.1350000000000016	33.94792000763114
4	main	368	1	1	0.800004928954877	1	0.800002217059955	0.7873721310170367	-0.012630086042918265	12.627868982963308	4.509960700049996	0.004928954876914915
4	main	369	1	1	0.8673970940290019	1	0.8720091669820249	0.8637490860419348	-0.00826008094009012	63.749086041934746	5.520832389700226	67.39709402900185
4	main	370	1	1	0.8003899509785697	1	0.79998574196361	0.7834980189800262	-0.016487722983583808	16.501981019973798	4.515692575476132	0.389950978569642
4	main	371	0	1	0.8001829240238294	0.6000000000000001	0.8160161169944331	0.7961195870302618	-0.01989652996417135	16.501981019973798	1.5100000000000016	0.389950978569642
4	main	372	1	1	0.8001156840473413	1	0.7999959130538628	0.7876362390816212	-0.01235967397224158	12.363760918378874	4.511636965433135	0.11568404734130233
4	main	373	0	1	0.8166955970227718	0.5750000000000001	0.8320275510195643	0.8040292951045558	-0.027998255915008485	12.363760918378874	1.1350000000000016	0.11568404734130233
4	main	374	1	1	0.8504411210305989	1	0.8480058469576761	0.8353262479649857	-0.012679598992690444	35.326247964985626	5.26650545489043	50.441121030598836
4	main	375	1	1	0.8337691560154781	1	0.8320262610213831	0.8185484280111268	-0.01347783301025629	18.548428011126774	5.0163921691616995	33.76915601547803
4	main	376	1	1	0.8339964529732242	1	0.839998495997861	0.8225354050518945	-0.017463090945966542	22.535405051894443	5.019804415749386	33.99645297322418
4	main	377	1	1	0.8334641330875456	1	0.8480369170429185	0.8329617540584877	-0.01507516298443079	32.96175405848767	5.011776641001925	33.46413308754559
4	main	378	1	1	0.8339956150157377	1	0.8480143710039556	0.8261002940125763	-0.02191407699137926	26.1002940125763	5.019745269198902	33.99561501573767
4	main	379	0	0	NaN	0.55	0.8480143710039556	0.8261002940125763	-0.02191407699137926	26.1002940125763	0.7599999999999998	33.99561501573767
4	main	380	1	1	0.7673035300103948	1	0.7760864209849387	0.7651814450509846	-0.01090497593395412	34.81855494901542	4.019363770601339	32.69646998960529
4	main	381	1	1	0.7665698810014874	1	0.7840344189899042	0.7585644288919866	-0.025469990097917616	41.435571108013434	4.0084323090175165	33.43011899851267
4	main	382	0	1	0.8173282149946317	0.5750000000000001	0.8240352120483294	0.8097224360099062	-0.01431277603842318	41.435571108013434	1.1350000000000016	33.43011899851267
4	main	383	1	1	0.8007636580150574	1	0.8000324700260535	0.7863606050377712	-0.013671864988282323	13.639394962228879	4.521345385108143	0.7636580150574002
4	main	384	1	1	0.8835001230472699	1	0.888017394929193	0.8754933279706165	-0.01252406695857644	75.49332797061648	5.762392374561168	83.50012304726984
4	main	385	1	1	0.7837159279733896	1	0.7840425299946219	0.7720278479391709	-0.012014682055450976	27.972152060829146	4.2656418693857265	16.284072026610417
4	main	386	1	1	0.8340654129860923	1	0.8400309759890661	0.8256004980066791	-0.014430477982386947	25.600498006679075	5.020802604374476	34.06541298609223
4	main	387	1	1	0.8502279230160639	1	0.8640932940179482	0.8484874030109495	-0.015605891006998718	48.48740301094945	5.263298213938251	50.227923016063826
4	main	388	0	0	NaN	0.55	0.8640932940179482	0.8484874030109495	-0.015605891006998718	48.48740301094945	0.7599999999999998	50.227923016063826
4	main	389	1	1	0.849837937974371	1	0.8480152069823816	0.835709776962176	-0.012305430020205677	35.70977696217592	5.257437054640613	49.83793797437097
4	main	390	1	1	0.8335108399624005	1	0.8320037730736658	0.8205624050460756	-0.011441368027590215	20.56240504607554	5.012560600405559	33.51083996240045
4	main	391	1	1	0.8336968650110066	1	0.8480271589942276	0.821741110063158	-0.026286048931069672	21.741110063157933	5.015274325376376	33.69686501100655
4	main	392	1	1	0.8338452009484172	1	0.8480014129308984	0.8295375829329714	-0.01846382999792695	29.537582932971375	5.017576928474009	33.845200948417144
4	main	393	1	1	0.8334482120117173	1	0.8480010359780863	0.8199166719568893	-0.02808436402119696	19.91667195688929	5.011624299911782	33.44821201171722
4	main	394	1	1	0.8339427929604426	1	0.8400207790546119	0.8282968440325931	-0.01172393502201885	28.29684403259303	5.018997819968499	33.94279296044256
4	main	395	1	1	0.833705413970165	1	0.8399924389086664	0.8201203299686313	-0.019872108940035105	20.120329968631225	5.015427880096249	33.70541397016491
4	main	396	0	1	0.7999415909871459	0.5750000000000001	0.8080200180411339	0.7916935830144212	-0.016326435026712716	20.120329968631225	1.1350000000000016	33.70541397016491
4	main	397	1	1	0.8338413380552083	1	0.83200847893022	0.8180277519859374	-0.013980726944282651	18.027751985937314	5.017488160626963	33.84133805520828
4	main	398	1	1	0.8507861819816753	1	0.8641030039871112	0.8501233919523656	-0.013979612034745514	50.123391952365594	5.271629094020463	50.786181981675284
4	main	399	1	1	0.8167188679799438	1	0.8320327179972082	0.8099537760717794	-0.022078941925428808	9.953776071779386	4.760669439672492	16.71886797994371
4	main	400	1	1	0.8337117179762572	1	0.8319847679231316	0.8209452748997137	-0.01103949302341789	20.945274899713652	5.015533268558793	33.71171797625716
