Block	TrialType	Trial	Signal	Response	RT	SSD	keyDuration	keyDuration_startSyched	keyRT	feedback_ms	vert	feedback_synched
1	practice	1	1	1	0.7998805979732424	1	0.82400459703058	0.7832997679943219	-0.04070482903625816	16.70023200567816	4.508065434745513	0.11940202675764233
1	practice	2	0	0	NaN	0.5	0.82400459703058	0.7832997679943219	-0.04070482903625816	16.70023200567816	0.009999999999999787	0.11940202675764233
1	main	1	1	1	0.8153155168984085	1	0.8239755250979215	0.8081085589947179	-0.015866966103203595	8.108558994717852	4.7396288196230305	15.315516898408488
1	main	2	0	0	NaN	0.5250000000000001	0.8239755250979215	0.8081085589947179	-0.015866966103203595	8.108558994717852	0.38500000000000156	15.315516898408488
1	main	3	1	1	0.8670246209949255	1	0.8719657870242372	0.8502400930738077	-0.02172569395042956	50.240093073807614	5.515211335257627	67.02462099492546
1	main	4	1	1	0.8500406610546634	1	0.8558145529823378	0.836296787019819	-0.01951776596251875	36.29678701981898	5.260479219248518	50.04066105466332
1	main	5	1	1	0.7833726740209386	1	0.784006833913736	0.7733634959440678	-0.01064333796966821	26.636504055932207	4.260450895633548	16.627325979061467
1	main	6	1	1	0.8003458780003712	1	0.8160056279739365	0.7929372260114178	-0.023068401962518692	7.062773988582238	4.515054639303125	0.3458780003711137
1	main	7	1	1	0.8337292069336399	1	0.8400075710378587	0.8216181789757684	-0.018389392062090337	21.618178975768345	5.015784699460491	33.7292069336399
1	main	8	1	1	0.8170551609946415	1	0.823985235998407	0.8001745420042425	-0.023810693994164467	0.174542004242495	4.765700799287297	17.05516099464144
1	main	9	1	1	0.7504582679830492	1	0.768031690036878	0.7402315599611029	-0.027800130075775087	59.76844003889714	3.7667327340366317	49.54173201695089
1	main	10	1	1	0.8496129419654608	1	0.8560067130019888	0.8346062629716471	-0.021400450030341744	34.60626297164704	5.254042764534242	49.612941965460735
1	main	11	1	1	0.7837308479938656	1	0.7919950010254979	0.7716786010423675	-0.020316399983130395	28.321398957632525	4.2658662546798585	16.269152006134433
1	main	12	1	1	0.8004159680567682	1	0.8240731880068779	0.7995949030155316	-0.0244782849913463	0.4050969844684449	4.516103545427322	0.41596805676813453
1	main	13	1	1	0.8005505739711225	1	0.8160716349957511	0.798361246008426	-0.017710388987325132	1.6387539915740934	4.518051354787312	0.5505739711224589
1	main	14	0	1	0.7337831209879369	0.55	0.7440008909907192	0.7174760530469939	-0.026524837943725288	1.6387539915740934	0.7599999999999998	0.5505739711224589
1	main	15	1	1	0.7991228259634227	1	0.8079862809972838	0.7825040069874376	-0.02548227400984615	17.495993012562437	4.496754189128987	0.8771740365773883
1	main	16	0	0	NaN	0.5250000000000001	0.8079862809972838	0.7825040069874376	-0.02548227400984615	17.495993012562437	0.38500000000000156	0.8771740365773883
1	main	17	1	1	0.7500917369034141	1	0.7679056649794802	0.735248883953318	-0.03265678102616221	64.75111604668204	3.761211024355143	49.90826309658591
1	main	18	1	1	0.16701236192602664	1	0.17599582707043737	0.16143119300249964	-0.014564634067937732	638.5688069975004	-4.9850030905893075	632.9876380739734
1	main	19	1	1	0.8171231260057539	1	0.8240344179794192	0.8050155269447714	-0.019018891034647822	5.015526944771365	4.766695629912428	17.123126005753832
1	main	20	1	1	0.7836204780032858	1	0.7919970540096983	0.7775007600430399	-0.014496293966658413	22.499239956960125	4.264122714046389	16.379521996714217
1	main	21	0	0	NaN	0.55	0.7919970540096983	0.7775007600430399	-0.014496293966658413	22.499239956960125	0.7599999999999998	16.379521996714217
1	main	22	0	0	NaN	0.5750000000000001	0.7919970540096983	0.7775007600430399	-0.014496293966658413	22.499239956960125	1.1350000000000016	16.379521996714217
1	main	23	1	1	0.8004423319362104	1	0.8159938459284604	0.7902679939288646	-0.02572585199959576	9.732006071135446	4.516440008990466	0.4423319362103495
1	main	24	1	1	0.7671798740047961	1	0.7840569579275325	0.7657131999731064	-0.01834375795442611	34.28680002689366	4.01753291498404	32.820125995203895
1	main	25	1	1	0.7814004779793322	1	0.8079902729950845	0.7731647420441732	-0.03482553095091134	26.83525795582686	4.23086625942029	18.599522020667834
1	main	26	1	1	0.8506384330103174	1	0.8640003440668806	0.8411630160408095	-0.02283732802607119	41.16301604080941	5.269434009785764	50.63843301031734
1	main	27	1	1	0.8003125380491838	1	0.8159935069270432	0.7960887480294332	-0.01990475889761001	3.9112519705668536	4.51453091529198	0.3125380491837415
1	main	28	1	1	0.7835252400254831	1	0.7839850360760465	0.7714822210837156	-0.012502814992330968	28.517778916284485	4.262727280836552	16.47475997451697
1	main	29	1	1	0.8170551410876215	1	0.839995953021571	0.810559282079339	-0.029436670942232013	10.559282079338983	4.765672271130606	17.055141087621408
1	main	30	1	1	0.8506485789548606	1	0.8560023499885574	0.8414114009356126	-0.01459094905294478	41.411400935612576	5.269543840656988	50.648578954860525
1	main	31	1	1	0.8002414751099423	1	0.8000164469704032	0.7834165650419891	-0.016599881928414106	16.583434958010955	4.513169905510731	0.241475109942213
1	main	32	0	1	0.8006014759885147	0.6000000000000001	0.8079952059779316	0.7928974189562723	-0.015097787021659315	16.583434958010955	1.5100000000000016	0.241475109942213
1	main	33	0	0	NaN	0.5750000000000001	0.8079952059779316	0.7928974189562723	-0.015097787021659315	16.583434958010955	1.1350000000000016	0.241475109942213
1	main	34	1	1	0.8005672440631315	1	0.808012522989884	0.7890461829956621	-0.018966339994221926	10.953817004337951	4.518348205126822	0.5672440631314668
1	main	35	1	1	0.08371247700415552	1	0.10400267504155636	0.07419036806095392	-0.029812306980602443	725.8096319390461	-6.234435199769214	716.2875229958445
1	main	36	1	1	0.7837749440222979	1	0.8080580970272422	0.7828987400280312	-0.025159356999211013	17.101259971968872	4.266468010717071	16.225055977702183
1	main	37	1	1	0.8170105670578778	1	0.8239972370211035	0.8040634170174599	-0.019933820003643632	4.063417017459825	4.76502572604455	17.010567057877736
1	main	38	1	1	0.8007304470520467	1	0.8159915830474347	0.7976186780724674	-0.01837290497496724	2.381321927532598	4.520829475475475	0.7304470520466122
1	main	39	1	1	0.7834691209718585	1	0.7919847759185359	0.7679947139695287	-0.023990061949007213	32.00528603047137	4.261940394751727	16.53087902814154
1	main	40	0	0	NaN	0.6000000000000001	0.7919847759185359	0.7679947139695287	-0.023990061949007213	32.00528603047137	1.5100000000000016	16.53087902814154
1	main	41	0	1	0.816954963025637	0.625	0.831967496080324	0.8128774710930884	-0.019090024987235665	32.00528603047137	1.8849999999999998	16.53087902814154
1	main	42	1	1	0.8493898489978164	1	0.8560014590620995	0.8364730960456654	-0.019528363016434014	36.4730960456654	5.250717399865389	49.3898489978164
1	main	43	1	1	0.8025990399764851	1	0.8159900530008599	0.7876766229746863	-0.02831343002617359	12.32337702531372	4.548839529268443	2.599039976485029
1	main	44	1	1	0.816537938080728	1	0.8319993040058762	0.8128921180032194	-0.019107186002656817	12.892118003219322	4.757890314902179	16.53793808072801
1	main	45	1	1	0.8338085300056264	1	0.8560066890204325	0.8275986900553107	-0.028407998965121806	27.598690055310684	5.017009480614215	33.80853000562634
1	main	46	1	1	0.817540712072514	1	0.8160070769954473	0.8031368900556117	-0.012870186939835548	3.136890055611685	4.772929165735841	17.540712072513955
1	main	47	0	1	0.8002386080333963	0.6000000000000001	0.8239726381143555	0.7947361960541457	-0.02923644206020981	3.136890055611685	1.5100000000000016	17.540712072513955
1	main	48	1	1	0.8340372910024598	1	0.8479899329831824	0.8310203229775652	-0.01696961000561714	31.020322977565186	5.0204029150679705	34.03729100245978
1	main	49	0	1	0.8001264919294044	0.5750000000000001	0.8080011559650302	0.7919716079486534	-0.016029548016376793	31.020322977565186	1.1350000000000016	34.03729100245978
1	main	50	1	1	0.8505609650164843	1	0.8639961959561333	0.8382396260276437	-0.025756569928489625	38.23962602764364	5.268240445982665	50.56096501648422
1	main	51	1	1	0.8170003540581092	1	0.8319953490281478	0.8066290150163695	-0.025366334011778235	6.629015016369477	4.764872875055298	17.00035405810918
1	main	52	0	1	0.7835103980032727	0.55	0.7999806070001796	0.7758592719910666	-0.024121335009112954	6.629015016369477	0.7599999999999998	17.00035405810918
1	main	53	1	1	0.8503088559955359	1	0.8640086320228875	0.8394049389753491	-0.0246036930475384	39.404938975349026	5.264484550096094	50.30885599553581
1	main	54	1	1	0.7668385050492361	1	0.7759943139972165	0.7621594090014696	-0.01383490499574691	37.84059099853043	4.012439469913952	33.161494950763924
1	main	55	1	1	0.8002311210148036	1	0.8160043850075454	0.7912465650588274	-0.024757819948717952	8.753434941172644	4.513300841315649	0.23112101480360359
1	main	56	0	1	0.7502313749864697	0.5250000000000001	0.7600021170219406	0.7450943910516798	-0.014907725970260799	8.753434941172644	0.38500000000000156	0.23112101480360359
1	main	57	1	1	0.80048758094199	1	0.8160080699017271	0.7954994619358331	-0.020508607965894043	4.500538064166948	4.517140390342101	0.4875809419899735
1	main	58	1	1	0.8174330369802192	1	0.8240036779316142	0.803938950994052	-0.020064726937562227	3.9389509940519485	4.771352665955201	17.433036980219143
1	main	59	0	0	NaN	0.5	0.8240036779316142	0.803938950994052	-0.020064726937562227	3.9389509940519485	0.009999999999999787	17.433036980219143
1	main	60	1	1	0.8005618620663881	1	0.815989313996397	0.7880333160283044	-0.02795599796809256	11.966683971695646	4.518280915906653	0.5618620663880858
1	main	61	1	1	0.8170455509098247	1	0.8399164290167391	0.8160342279588804	-0.023882201057858765	16.034227958880322	4.765470550153404	17.045550909824627
1	main	62	0	0	NaN	0.5250000000000001	0.8399164290167391	0.8160342279588804	-0.023882201057858765	16.034227958880322	0.38500000000000156	17.045550909824627
1	main	63	1	1	0.8171611530706286	1	0.832003507995978	0.8120026800315827	-0.020000827964395285	12.002680031582669	4.767264235522598	17.1611530706286
1	main	64	1	1	0.8006987790577114	1	0.7999974610283971	0.7882672040723264	-0.011730256956070662	11.732795927673623	4.520326824965887	0.6987790577113184
1	main	65	1	1	0.833378829061985	1	0.8480147919617593	0.8269987209932879	-0.021016070968471467	26.99872099328782	5.010519444583915	33.37882906198497
1	main	66	1	1	0.7476231729378924	1	0.7680022300919518	0.7386088880011812	-0.029393342090770602	61.39111199881886	3.724200804242864	52.376827062107665
1	main	67	1	1	0.8836641089292243	1	0.8960035979980603	0.8738054509740323	-0.022198147024028003	73.80545097403224	5.76480222934857	83.66410892922427
1	main	68	0	0	NaN	0.55	0.8960035979980603	0.8738054509740323	-0.022198147024028003	73.80545097403224	0.7599999999999998	83.66410892922427
1	main	69	0	0	NaN	0.5750000000000001	0.8960035979980603	0.8738054509740323	-0.022198147024028003	73.80545097403224	1.1350000000000016	83.66410892922427
1	main	70	0	0	NaN	0.6000000000000001	0.8960035979980603	0.8738054509740323	-0.022198147024028003	73.80545097403224	1.5100000000000016	83.66410892922427
1	main	71	1	1	0.8337649039458483	1	0.8400060539133847	0.8292751079425216	-0.010730945970863104	29.27510794252153	5.0163142750877885	33.7649039458483
1	main	72	1	1	0.8336056739790365	1	0.8399972449988127	0.8206897689960897	-0.01930747600272298	20.689768996089654	5.013880060394294	33.60567397903647
1	main	73	0	1	0.7836062130518258	0.625	0.8000006889924407	0.7792655100347474	-0.02073517895769328	20.689768996089654	1.8849999999999998	33.60567397903647
1	main	74	1	1	0.1168159960070625	1	0.12800912803504616	0.10276690497994423	-0.02524222305510193	697.2330950200558	-5.737868465841748	683.1840039929375
1	main	75	0	1	0.8174246340058744	0.6000000000000001	0.8400447230087593	0.8163658070843667	-0.02367891592439264	697.2330950200558	1.5100000000000016	683.1840039929375
1	main	76	1	1	0.8838360180379823	1	0.8959791490342468	0.8718847390264273	-0.024094410007819533	71.88473902642723	5.767347699836828	83.83601803798224
1	main	77	1	1	0.8006563280941918	1	0.80802360503003	0.797968146041967	-0.010055458988063037	2.0318539580330697	4.519673530701548	0.6563280941918048
1	main	78	1	1	0.8334986849222332	1	0.848015584051609	0.8306078589521348	-0.01740772509947419	30.607858952134805	5.012381934900768	33.49868492223318
1	main	79	0	1	0.7839965260354802	0.5750000000000001	0.8080447729444131	0.7829584879800677	-0.025086284964345396	30.607858952134805	1.1350000000000016	33.49868492223318
1	main	80	0	0	NaN	0.55	0.8080447729444131	0.7829584879800677	-0.025086284964345396	30.607858952134805	0.7599999999999998	33.49868492223318
1	main	81	1	1	0.833987360005267	1	0.8467686909716576	0.8254322239663452	-0.021336467005312443	25.43222396634515	5.019648400591686	33.98736000526692
1	main	82	1	1	0.8340818150900304	1	0.8481775879627094	0.8250409699976444	-0.023136617965064943	25.040969997644382	5.021072875349782	34.08181509003039
1	main	83	1	1	0.8000053310533985	1	0.8159937820164487	0.7918156860396266	-0.024178095976822078	8.184313960373446	4.5099532296787945	0.005331053398505148
1	main	84	1	1	0.7668900899589062	1	0.7919991359813139	0.7598825009772554	-0.03211663500405848	40.11749902274464	4.013256759606302	33.10991004109387
1	main	85	1	1	0.7837191639700904	1	0.7920974780572578	0.781948474003002	-0.010149004054255784	18.051525996997995	4.2655132455891	16.280836029909594
1	main	86	1	1	0.8340013689594343	1	0.8480041519505903	0.8202465289505199	-0.027757623000070453	20.246528950519817	5.019899814031087	34.00136895943429
1	main	87	0	0	NaN	0.5750000000000001	0.8480041519505903	0.8202465289505199	-0.027757623000070453	20.246528950519817	1.1350000000000016	34.00136895943429
1	main	88	1	1	0.8166228950722143	1	0.8319064270472154	0.8045117080910131	-0.02739471895620227	4.511708091013089	4.759213045579381	16.622895072214263
1	main	89	0	0	NaN	0.6000000000000001	0.8319064270472154	0.8045117080910131	-0.02739471895620227	4.511708091013089	1.5100000000000016	16.622895072214263
1	main	90	0	0	NaN	0.625	0.8319064270472154	0.8045117080910131	-0.02739471895620227	4.511708091013089	1.8849999999999998	16.622895072214263
1	main	91	1	1	0.7832480489742011	1	0.800005255965516	0.7781461459817365	-0.02185910998377949	21.85385401826356	4.258565259040333	16.75195102579896
1	main	92	1	1	0.9001702329842374	1	0.9040121149737388	0.8898986839922145	-0.014113430981524289	89.89868399221446	6.012431110246107	100.17023298423733
1	main	93	1	1	0.849276207969524	1	0.8399938279762864	0.8256404269486666	-0.014353401027619839	25.64042694866653	5.248991469959728	49.276207969523924
1	main	94	1	1	0.816519464016892	1	0.8319938570493832	0.8084954690421	-0.02349838800728321	8.495469042099968	4.757706325142644	16.519464016891973
1	main	95	1	1	0.7840080300811678	1	0.8001348510151729	0.7833809130825102	-0.016753937932662666	16.61908691748981	4.269952645516023	15.991969918832227
1	main	96	1	1	0.8178263410227373	1	0.8160315200220793	0.8018958989996463	-0.014135621022433043	1.8958989996462616	4.777235380713828	17.82634102273728
1	main	97	1	1	0.816083278041333	1	0.8320714000146836	0.814860925078392	-0.017210474936291575	14.860925078391984	4.751072184988297	16.083278041332917
1	main	98	1	1	0.8005701509537175	1	0.8159973589936271	0.790433726971969	-0.025563632021658123	9.566273028031036	4.518401814382523	0.5701509537174854
1	main	99	1	1	0.8339035330573097	1	0.8480796220246702	0.8318805430317298	-0.016199078992940485	31.880543031729715	5.018385445107706	33.903533057309645
1	main	100	1	1	0.8171870979713276	1	0.831783980014734	0.8012330200290307	-0.03055095998570323	1.2330200290306959	4.76768367992714	17.18709797132756
2	main	101	1	1	0.8503510840237141	1	0.8557756550144404	0.8439291870454326	-0.01184646796900779	43.929187045432585	5.265020724725909	50.35108402371402
2	main	102	0	1	0.8328513279557228	0.65	0.8480086859781295	0.8229647079715505	-0.025043978006578982	43.929187045432585	2.26	50.35108402371402
2	main	103	1	1	0.8338291089748964	1	0.8479970269836485	0.8217477599391714	-0.026249267044477165	21.74775993917133	5.017284985040314	33.82910897489633
2	main	104	1	1	0.7671713279560208	1	0.7680003249552101	0.7538522979011759	-0.014148027054034173	46.147702098824126	4.017432969519868	32.82867204397921
2	main	105	1	1	0.7836225450737402	1	0.7920088890241459	0.7769202550407499	-0.015088633983395994	23.079744959250135	4.2641812144918365	16.37745492625986
2	main	106	1	1	0.8503198870457709	1	0.856030271970667	0.8423639769898728	-0.013666294980794191	42.36397698987271	5.264646626417525	50.31988704577084
2	main	107	1	1	0.8007774680154398	1	0.8000163959804922	0.7846609639236704	-0.015355432056821883	15.339036076329693	4.521507204733789	0.777468015439764
2	main	108	1	1	0.8332488860469311	1	0.8400225329678506	0.8193808529758826	-0.020641679991967976	19.380852975882547	5.0086207898473365	33.248886046931105
2	main	109	1	1	0.7671031049685553	1	0.7761218019295484	0.7658798459451646	-0.010241955984383821	34.12015405483548	4.016369889248162	32.89689503144477
2	main	110	1	1	0.7667693609837443	1	0.792204083991237	0.7661818690830842	-0.02602221490815282	33.81813091691588	4.011363505958579	33.23063901625578
2	main	111	1	1	0.8170435160864145	1	0.8164516249671578	0.8009636329952627	-0.015487991971895099	0.9636329952626976	4.7654780956124885	17.043516086414414
2	main	112	1	1	0.8003183609107509	1	0.8159885299392045	0.7957814269466326	-0.02020710299257189	4.21857305336748	4.514626959678717	0.31836091075088113
2	main	113	1	1	0.7668690289137885	1	0.7840002140728757	0.759911454981193	-0.024088759091682732	40.088545018807096	4.012931169816293	33.130971086211545
2	main	114	0	1	0.8006174339680001	0.625	0.8159954890143126	0.7978374960366637	-0.018157992977648973	40.088545018807096	1.8849999999999998	33.130971086211545
2	main	115	1	1	0.1673592289444059	1	0.17599394998978823	0.15878112195059657	-0.017212828039191663	641.2188780494034	-4.97974331014324	632.6407710555941
2	main	116	0	0	NaN	0.6000000000000001	0.17599394998978823	0.15878112195059657	-0.017212828039191663	641.2188780494034	1.5100000000000016	632.6407710555941
2	main	117	1	1	0.8498980239965022	1	0.855995393008925	0.8362560260575265	-0.01973936695139855	36.25602605752643	5.258321815161034	49.89802399650212
2	main	118	1	1	0.8171275620115921	1	0.8400345229310915	0.8165265249554068	-0.023507997975684702	16.526524955406742	4.766744440528564	17.127562011592047
2	main	119	1	1	0.8166882129153237	1	0.8399949229788035	0.8101302479626611	-0.029864675016142428	10.130247962661043	4.760193880172446	16.688212915323632
2	main	120	1	1	0.7503566519590095	1	0.7679905039258301	0.7470018249005079	-0.0209886790253222	52.998175099492116	3.765209153750911	49.643348040990574
2	main	121	0	1	0.8001296150032431	0.625	0.8159955849405378	0.7836845759302378	-0.03231100901030004	52.998175099492116	1.8849999999999998	49.643348040990574
2	main	122	0	1	0.8336126630892977	0.6000000000000001	0.8480052630184218	0.8282341801095754	-0.019771082908846438	52.998175099492116	1.5100000000000016	49.643348040990574
2	main	123	1	1	0.8507237290032208	1	0.8560768390307203	0.8394113220274448	-0.016665517003275454	39.4113220274448	5.270686225956306	50.723729003220754
2	main	124	1	1	0.8335068529704586	1	0.8400008589960635	0.8250746430130675	-0.014926215982995927	25.0746430130675	5.012475550281815	33.506852970458525
2	main	125	1	1	0.8168535170843825	1	0.8239975180476904	0.8038406210253015	-0.020156897022388875	3.8406210253014716	4.762691455068998	16.853517084382432
2	main	126	1	1	0.8003414740087464	1	0.8159910039976239	0.7917217009235173	-0.024269303074106574	8.278299076482698	4.514980148631148	0.34147400874640077
2	main	127	1	1	0.8168224580585957	1	0.8240145199233666	0.8009125329554081	-0.02310198696795851	0.9125329554080519	4.762192359883338	16.822458058595615
2	main	128	1	1	0.8164771589217708	1	0.8239680499536917	0.8047982939751819	-0.019169755978509784	4.798293975181833	4.756976860333234	16.47715892177071
2	main	129	1	1	0.7838062950177118	1	0.7920891609974205	0.7831523630302399	-0.00893679796718061	16.847636969760103	4.266854486302472	16.193704982288224
2	main	130	1	1	0.7671614020364359	1	0.7841698880074546	0.7665063870372251	-0.017663500970229506	33.493612962774975	4.017272875169292	32.83859796356414
2	main	131	1	1	0.8005027560284361	1	0.8080181289697066	0.7851247939979658	-0.022893334971740842	14.875206002034291	4.517395495311357	0.5027560284360799
2	main	132	0	1	0.8334630719618872	0.5750000000000001	0.8479931659530848	0.8230296659749001	-0.0249634999781847	14.875206002034291	1.1350000000000016	0.5027560284360799
2	main	133	0	0	NaN	0.55	0.8479931659530848	0.8230296659749001	-0.0249634999781847	14.875206002034291	0.7599999999999998	0.5027560284360799
2	main	134	1	1	0.8337807760108262	1	0.8480203659273684	0.8250011450145394	-0.02301922091282904	25.00114501453932	5.0165439409809185	33.78077601082619
2	main	135	1	1	0.7835831330157816	1	0.7839899860555306	0.7748603570507839	-0.009129629004746675	25.13964294921611	4.263570159780793	16.4168669842184
2	main	136	1	1	0.8001359519548714	1	0.8160046909470111	0.7957987359259278	-0.020205955021083355	4.201264074072286	4.511863825134933	0.13595195487137168
2	main	137	1	1	0.7837288730079308	1	0.7840019350405782	0.7717139959568158	-0.012287939083762467	28.286004043184263	4.265774890189059	16.271126992069227
2	main	138	1	1	0.8170198888983577	1	0.8319970050361007	0.8071103179827332	-0.024886687053367496	7.110317982733205	4.7651368142012505	17.019888898357706
2	main	139	1	1	0.8167962060542777	1	0.8239954590098932	0.8003506989916787	-0.023644760018214583	0.35069899167861074	4.761804370316677	16.796206054277675
2	main	140	0	0	NaN	0.5750000000000001	0.8239954590098932	0.8003506989916787	-0.023644760018214583	0.35069899167861074	1.1350000000000016	16.796206054277675
2	main	141	0	0	NaN	0.6000000000000001	0.8239954590098932	0.8003506989916787	-0.023644760018214583	0.35069899167861074	1.5100000000000016	16.796206054277675
2	main	142	1	1	0.8169564950512722	1	0.8320379219949245	0.8130343729862943	-0.019003549008630216	13.034372986294285	4.764198385053314	16.95649505127217
2	main	143	1	1	0.8004465739941224	1	0.807918879087083	0.7916850059991702	-0.016233873087912798	8.3149940008298	4.516544003961608	0.4465739941224012
2	main	144	1	1	0.8170071659842506	1	0.8319972059689462	0.8109251459827647	-0.021072059986181557	10.925145982764617	4.764962980514392	17.007165984250562
2	main	145	1	1	0.7835527110146359	1	0.800004402990453	0.7721216379432008	-0.027882765047252178	27.878362056799276	4.2631840299488974	16.44728898536418
2	main	146	1	1	0.8170913830399513	1	0.8400966509943828	0.8154856539331377	-0.024610997061245143	15.48565393313761	4.766191524793394	17.091383039951282
2	main	147	0	1	0.8335413540480658	0.625	0.8480049821082503	0.8173282440984622	-0.030676738009788096	15.48565393313761	1.8849999999999998	17.091383039951282
2	main	148	1	1	0.8506045559188351	1	0.8560053020482883	0.8344235150143504	-0.02158178703393787	34.42351501435037	5.268939398918301	50.60455591883506
2	main	149	0	0	NaN	0.6000000000000001	0.8560053020482883	0.8344235150143504	-0.02158178703393787	34.42351501435037	1.5100000000000016	50.60455591883506
2	main	150	1	1	0.845721002900973	1	0.8479997629765421	0.8316034879535437	-0.016396275022998452	31.60348795354362	5.195680149006657	45.72100290097292
2	main	151	1	1	0.7835872459691018	1	0.7919978169957176	0.7687078369781375	-0.023289980017580092	31.29216302186255	4.263656530054286	16.412754030898256
2	main	152	0	1	0.8505266169086099	0.625	0.8479848840506747	0.8377738089766353	-0.0102110750740394	31.29216302186255	1.8849999999999998	16.412754030898256
2	main	153	1	1	0.850379727082327	1	0.8640927759697661	0.8482723190682009	-0.015820456901565194	48.272319068200844	5.265505436216481	50.379727082326966
2	main	154	1	1	0.7997672510100529	1	0.8000627940054983	0.7844444819493219	-0.015618312056176364	15.555518050678119	4.506401335345581	0.23274898994718463
2	main	155	1	1	0.8838391000172123	1	0.887990907067433	0.8742293230025098	-0.013761584064923227	74.22932300250973	5.767440309389494	83.83910001721229
2	main	156	0	1	0.79936919210013	0.6000000000000001	0.8001643669558689	0.7839506010059267	-0.01621376594994217	74.22932300250973	1.5100000000000016	83.83910001721229
2	main	157	1	1	0.8503478480270132	1	0.8558956560445949	0.8368676140671596	-0.01902804197743535	36.86761406715955	5.26504591059871	50.3478480270132
2	main	158	1	1	0.8003577219787985	1	0.8240343630313873	0.7981569570256397	-0.025877406005747616	1.8430429743603316	4.515201385472901	0.35772197879846424
2	main	159	0	0	NaN	0.5750000000000001	0.8240343630313873	0.7981569570256397	-0.025877406005747616	1.8430429743603316	1.1350000000000016	0.35772197879846424
2	main	160	1	1	0.817203605081886	1	0.8319934359751642	0.8051622740458697	-0.026831161929294467	5.162274045869664	4.767955360109918	17.20360508188601
2	main	161	1	1	0.867160658002831	1	0.8719965770142153	0.854184640920721	-0.017811936093494296	54.18464092072095	5.517245469489135	67.160658002831
2	main	162	0	1	0.8007600939599797	0.6000000000000001	0.808028444997035	0.791565487976186	-0.01646295702084899	54.18464092072095	1.5100000000000016	67.160658002831
2	main	163	1	1	0.816676800022833	1	0.8240291880210862	0.8081620270386338	-0.015867160982452333	8.162027038633779	4.760040519284084	16.676800022833007
2	main	164	1	1	0.8337435671128333	1	0.8399992550257593	0.8211541681084782	-0.01884508691728115	21.154168108478146	5.016053711404092	33.74356711283322
2	main	165	1	1	0.8000968439737335	1	0.8160310110542923	0.798810007981956	-0.017221003072336316	1.1899920180440393	4.510964708859101	0.09684397373344034
2	main	166	1	1	0.8340199339436367	1	0.8399926359998062	0.8244808319723234	-0.015511804027482867	24.480831972323315	5.020151545284316	34.01993394363667
2	main	167	1	1	0.8503483090316877	1	0.8640031520044431	0.840781265986152	-0.023221886018291116	40.78126598615195	5.265113575258292	50.348309031687634
2	main	168	0	0	NaN	0.5750000000000001	0.8640031520044431	0.840781265986152	-0.023221886018291116	40.78126598615195	1.1350000000000016	50.348309031687634
2	main	169	0	0	NaN	0.6000000000000001	0.8640031520044431	0.840781265986152	-0.023221886018291116	40.78126598615195	1.5100000000000016	50.348309031687634
2	main	170	0	1	0.8175941539229825	0.625	0.8319997920189053	0.8144582869717851	-0.017541505047120154	40.78126598615195	1.8849999999999998	50.348309031687634
2	main	171	1	1	0.1168090560240671	1	0.1200006150174886	0.11147169105242938	-0.00852892396505922	688.5283089475706	-5.737962004388683	683.1909439759329
2	main	172	1	1	0.8504169549560174	1	0.8640001900494099	0.8461351559963077	-0.017865034053102136	46.13515599630769	5.266111629423685	50.41695495601739
2	main	173	0	1	0.7839633839903399	0.6000000000000001	0.7999979449668899	0.7764003949705511	-0.023597549996338785	46.13515599630769	1.5100000000000016	50.41695495601739
2	main	174	1	1	0.833645775099285	1	0.8400004380382597	0.8195102860918269	-0.02049015194643289	19.510286091826814	5.014382125916891	33.645775099284904
2	main	175	0	0	NaN	0.5750000000000001	0.8400004380382597	0.8195102860918269	-0.02049015194643289	19.510286091826814	1.1350000000000016	33.645775099284904
2	main	176	1	1	0.8335464419797063	1	0.8560067649232224	0.8299149349331856	-0.026091829990036786	29.914934933185535	5.013064448828809	33.546441979706245
2	main	177	1	1	0.8835734230233356	1	0.8879497810266912	0.8719685600372031	-0.015981220989488065	71.96856003720309	5.76344507524278	83.5734230233356
2	main	178	1	1	0.8502626130357385	1	0.8640653339680284	0.8487604600377381	-0.015304873930290341	48.76046003773804	5.2638153110072015	50.262613035738426
2	main	179	0	0	NaN	0.6000000000000001	0.8640653339680284	0.8487604600377381	-0.015304873930290341	48.76046003773804	1.5100000000000016	50.262613035738426
2	main	180	0	0	NaN	0.625	0.8640653339680284	0.8487604600377381	-0.015304873930290341	48.76046003773804	1.8849999999999998	50.262613035738426
2	main	181	1	1	0.8331714149098843	1	0.8399996210355312	0.8170089949853718	-0.022990626050159335	17.008994985371785	5.007386348550208	33.17141490988429
2	main	182	1	1	0.8171910729724914	1	0.8320078710094094	0.8141431029653177	-0.01786476804409176	14.143102965317622	4.767646689540706	17.19107297249134
2	main	183	1	1	0.8837903639068827	1	0.9040094340452924	0.8808471909724176	-0.023162243072874844	80.84719097241755	5.7667074691178275	83.79036390688266
2	main	184	1	1	0.8506087299901992	1	0.8559696789598092	0.8375460170209408	-0.018423661938868463	37.54601702094074	5.26895792467054	50.608729990199166
2	main	185	1	1	0.8167311019496992	1	0.8160033100284636	0.8044394629541785	-0.01156384707428515	4.439462954178408	4.760814310391433	16.73110194969918
2	main	186	1	1	0.8001851780572906	1	0.8079996249871328	0.784064706065692	-0.02393491892144084	15.935293934308037	4.512644381136633	0.18517805729056924
2	main	187	0	1	0.8484213389456272	0.65	0.8638744710478932	0.841391613939777	-0.02248285710811615	15.935293934308037	2.26	0.18517805729056924
2	main	188	1	1	0.8671126370318234	1	0.8639671780401841	0.8553966720355675	-0.008570506004616618	55.39667203556742	5.516525366217829	67.11263703182335
2	main	189	0	1	0.8673517450224608	0.625	0.8881097729317844	0.8656148799927905	-0.02249489293899387	55.39667203556742	1.8849999999999998	67.11263703182335
2	main	190	0	0	NaN	0.6000000000000001	0.8881097729317844	0.8656148799927905	-0.02249489293899387	55.39667203556742	1.5100000000000016	67.11263703182335
2	main	191	1	1	0.8339530719676986	1	0.8473597599659115	0.825631623971276	-0.021728135994635522	25.631623971275943	5.0191981003060935	33.95307196769859
2	main	192	1	1	0.8832551189698279	1	0.8959990050643682	0.8679176950827241	-0.028081309981644154	67.91769508272405	5.7586862497171385	83.25511896982785
2	main	193	1	1	0.8832974559627473	1	0.9040104720043018	0.8764756179880351	-0.027534854016266763	76.47561798803504	5.759325263313949	83.29745596274729
2	main	194	1	1	0.8665089580463246	1	0.8799874651012942	0.8614236530847847	-0.018563812016509473	61.4236530847847	5.507545271064155	66.50895804632451
2	main	195	1	1	0.8503690379438922	1	0.8639849229948595	0.8380999929504469	-0.025884930044412613	38.09999295044686	5.265352359963581	50.36903794389214
2	main	196	1	1	0.8338711049873382	1	0.8399864980019629	0.8215763649204746	-0.01841013308148831	21.576364920474546	5.017909494452178	33.87110498733814
2	main	197	1	1	0.8507646670332178	1	0.8720001500332728	0.8500912010204047	-0.021908949012868106	50.091201020404654	5.271322749429382	50.764667033217805
2	main	198	1	1	0.8666691700927913	1	0.8720022669294849	0.8507018060190603	-0.02130046091042459	50.70180601906027	5.5099517364194615	66.66917009279128
2	main	199	1	1	0.9002780659357086	1	0.9200057410635054	0.8922594760078937	-0.02774626505561173	92.25947600789364	6.014066049354151	100.27806593570854
2	main	200	1	1	0.8504052510252222	1	0.8479996980167925	0.8332441470120102	-0.014755551004782319	33.244147012010174	5.265818425212055	50.4052510252222
3	main	201	1	1	0.8673536819405854	1	0.8720197969814762	0.8608183889882639	-0.011201407993212342	60.81838898826386	5.520142403654754	67.35368194058533
3	main	202	0	1	0.8835062350844964	0.625	0.9039980799425393	0.8727793149882928	-0.03121876495424658	60.81838898826386	1.8849999999999998	67.35368194058533
3	main	203	1	1	0.8501992418896407	1	0.8720108029665425	0.8432783719617873	-0.0287324310047552	43.2783719617873	5.262814899431541	50.199241889640646
3	main	204	1	1	0.849133143085055	1	0.8640067080268636	0.8441441040486097	-0.0198626039782539	44.14410404860969	5.246759920953773	49.13314308505501
3	main	205	1	1	0.8503743220353499	1	0.8639707280090079	0.8387036690255627	-0.025267058983445168	38.70366902556266	5.26546830962412	50.37432203534986
3	main	206	1	1	0.9003211728995666	1	0.9039986560819671	0.8866794659988955	-0.01731919008307159	86.67946599889542	6.014669888643548	100.32117289956655
3	main	207	1	1	0.8836297750240192	1	0.8879913120763376	0.8666715500876307	-0.021319761988706887	66.6715500876307	5.764314041114412	83.62977502401914
3	main	208	1	1	0.8335397709161043	1	0.8400134909898043	0.8185179199790582	-0.021495571010746062	18.517919979058163	5.012957934048027	33.539770916104274
3	main	209	1	1	0.833873488008976	1	0.8479988899780437	0.8279569150181487	-0.020041974959895015	27.956915018148678	5.017943006348796	33.87348800897594
3	main	210	1	1	0.8336226399987936	1	0.8399975600186735	0.8212307580979541	-0.018766801920719445	21.230758097954052	5.014155295901	33.62263999879356
3	main	211	1	1	0.8502469590166584	1	0.8719517249846831	0.8445511229801923	-0.027400602004490793	44.55112298019226	5.263542535938322	50.24695901665832
3	main	212	1	1	0.8504509190097451	1	0.8640047019580379	0.8392931129783392	-0.024711588979698718	39.29311297833915	5.266592860678211	50.45091900974508
3	main	213	1	1	0.8171927280491218	1	0.8159966830862686	0.8007192510413006	-0.015277432044968009	0.7192510413005504	4.767721480564214	17.192728049121754
3	main	214	0	0	NaN	0.6000000000000001	0.8159966830862686	0.8007192510413006	-0.015277432044968009	0.7192510413005504	1.5100000000000016	17.192728049121754
3	main	215	1	1	0.8498772769235075	1	0.8639887989265844	0.8452860929537565	-0.01870270597282797	45.28609295375641	5.25806628935039	49.87727692350741
3	main	216	0	0	NaN	0.625	0.8639887989265844	0.8452860929537565	-0.01870270597282797	45.28609295375641	1.8849999999999998	49.87727692350741
3	main	217	1	1	0.8335548379691318	1	0.8479953369824216	0.8208625300321728	-0.027132806950248778	20.862530032172756	5.013180714556947	33.554837969131725
3	main	218	1	1	0.9168094089254737	1	0.9279971130890772	0.9013407150050625	-0.026656398084014654	101.34071500506248	6.262060389961116	116.80940892547365
3	main	219	1	1	0.8338055789936334	1	0.8476873839972541	0.8279291370417923	-0.0197582469554618	27.92913704179223	5.016936940480955	33.80557899363335
3	main	220	1	1	0.8832481199642643	1	0.9040094959782436	0.8748115149792284	-0.02919798099901527	74.81151497922833	5.758569023562595	83.24811996426429
3	main	221	0	1	0.817351044039242	0.65	0.8160013349261135	0.8047914779745042	-0.011209856951609254	74.81151497922833	2.26	83.24811996426429
3	main	222	0	1	0.8673121039755642	0.625	0.8800007640384138	0.8602692199638113	-0.019731544074602425	74.81151497922833	1.8849999999999998	83.24811996426429
3	main	223	1	1	0.866969202994369	1	0.8880142490379512	0.8645236800657585	-0.023490568972192705	64.52368006575848	5.513971180296503	66.96920299436893
3	main	224	1	1	0.8169640740379691	1	0.8387392760487273	0.8164318010676652	-0.022307474981062114	16.431801067665177	4.764258565371856	16.96407403796907
3	main	225	1	1	0.8001769359689206	1	0.8154931840253994	0.7884583399863914	-0.02703484403900802	11.541660013608679	4.512488170401193	0.17693596892054408
3	main	226	1	1	0.8000083459774032	1	0.8077293389942497	0.7925163690233603	-0.01521296997088939	7.483630976639732	4.50999779521022	0.008345977403179106
3	main	227	1	1	0.8172123969998211	1	0.8160011069849133	0.8004499269882217	-0.015551179996691644	0.44992698822166055	4.767998214336112	17.212396999821024
3	main	228	1	1	0.8000522790243849	1	0.8000165889970958	0.7891412579920143	-0.010875331005081534	10.858742007985756	4.510577065045945	0.05227902438487142
3	main	229	1	1	0.8170587669592351	1	0.8159880039747804	0.8008719648933038	-0.015116039081476629	0.8719648933037671	4.765752953933552	17.05876695923503
3	main	230	1	1	0.8005594400456175	1	0.8080016690073535	0.7934446990257129	-0.014556969981640577	6.555300974287137	4.518250346407294	0.5594400456174764
3	main	231	1	1	0.7500974599970505	1	0.7679694819962606	0.7443828270770609	-0.023586654919199646	55.617172922939105	3.7613606657739727	49.90254000294958
3	main	232	0	1	0.8173226029612124	0.6000000000000001	0.8239978790516034	0.8113366370089352	-0.012661242042668164	55.617172922939105	1.5100000000000016	49.90254000294958
3	main	233	0	0	NaN	0.5750000000000001	0.8239978790516034	0.8113366370089352	-0.012661242042668164	55.617172922939105	1.1350000000000016	49.90254000294958
3	main	234	1	1	0.8338433400494978	1	0.839998448966071	0.8271939200349152	-0.0128045289311558	27.193920034915166	5.017455699960701	33.84334004949774
3	main	235	1	1	0.850284124026075	1	0.863991464022547	0.8386261500418186	-0.025365313980728388	38.626150041818576	5.264168920801021	50.28412402607496
3	main	236	1	1	0.8007562040584162	1	0.8079963170457631	0.791436035069637	-0.016560281976126134	8.563964930363044	4.521190284974873	0.7562040584161434
3	main	237	1	1	0.8335292480187491	1	0.8480062630260363	0.8292672770330682	-0.018738985992968082	29.267277033068197	5.0127989799855275	33.529248018749016
3	main	238	1	1	0.7672238709637895	1	0.7839939000550658	0.7592301720287651	-0.02476372802630067	40.76982797123496	4.018135675103403	32.77612903621052
3	main	239	1	1	0.8171574379084632	1	0.8320124419406056	0.8133144759340212	-0.018697966006584466	13.31447593402113	4.767220118772238	17.157437908463137
3	main	240	0	0	NaN	0.6000000000000001	0.8320124419406056	0.8133144759340212	-0.018697966006584466	13.31447593402113	1.5100000000000016	17.157437908463137
3	main	241	0	1	0.8503219729755074	0.625	0.8720061179483309	0.8464349040295929	-0.025571213918738067	13.31447593402113	1.8849999999999998	17.157437908463137
3	main	242	1	1	0.8839616739423946	1	0.8879842380993068	0.873319756006822	-0.014664482092484832	73.31975600682195	5.769226704249158	83.96167394239451
3	main	243	1	1	0.8004456659546122	1	0.8079955819994211	0.7923588379053399	-0.015636744094081223	7.641162094660148	4.516505709141493	0.4456659546121511
3	main	244	1	1	0.8338792299618945	1	0.8399902699748054	0.830543742980808	-0.009446526993997395	30.543742980807977	5.018038179366849	33.87922996189441
3	main	245	1	1	0.8340991180157289	1	0.832016195054166	0.8171268700389192	-0.014889325015246868	17.126870038919108	5.021349401320331	34.09911801572885
3	main	246	1	1	0.7665972709655762	1	0.7760026849573478	0.7624344049254432	-0.013568280031904578	37.56559507455681	4.008838043771684	33.40272903442387
3	main	247	0	1	0.8668207159498706	0.6000000000000001	0.8800004019867629	0.8537885609548539	-0.02621184103190899	37.56559507455681	1.5100000000000016	33.40272903442387
3	main	248	1	1	0.8498589139198884	1	0.8639980209991336	0.8388541960157454	-0.025143824983388186	38.85419601574536	5.257765824315138	49.858913919888394
3	main	249	0	0	NaN	0.5750000000000001	0.8639980209991336	0.8388541960157454	-0.025143824983388186	38.85419601574536	1.1350000000000016	49.858913919888394
3	main	250	1	1	0.8836585120297968	1	0.904004318988882	0.873716032016091	-0.030288286972790956	73.716032016091	5.7647502999659626	83.6585120297968
3	main	251	1	1	0.8168268830049783	1	0.8319526519626379	0.8117986179422587	-0.020154034020379186	11.798617942258671	4.762270943718031	16.826883004978257
3	main	252	0	1	0.7999860600102693	0.6000000000000001	0.7999905321048573	0.7837710860185325	-0.01621944608632475	11.798617942258671	1.5100000000000016	16.826883004978257
3	main	253	1	1	0.8168294429779053	1	0.8318050380330533	0.8097698199562728	-0.02203521807678044	9.769819956272796	4.762353744697757	16.82944297790523
3	main	254	1	1	0.8335454019252211	1	0.8319902500370517	0.8210846099536866	-0.010905640083365142	21.084609953686552	5.013051669918932	33.54540192522104
3	main	255	1	1	0.7999302370008081	1	0.8319868830731139	0.7994683689903468	-0.03251851408276707	0.531631009653255	4.508853564145975	0.06976299919192464
3	main	256	0	0	NaN	0.5750000000000001	0.8319868830731139	0.7994683689903468	-0.03251851408276707	0.531631009653255	1.1350000000000016	0.06976299919192464
3	main	257	1	1	0.8336559029994532	1	0.8400074510136619	0.8190119180362672	-0.02099553297739476	19.01191803626712	5.014701864090748	33.655902999453204
3	main	258	1	1	0.7836508770706132	1	0.7999841329874471	0.7802496860967949	-0.01973444689065218	19.75031390320514	4.264622996668331	16.349122929386837
3	main	259	0	0	NaN	0.6000000000000001	0.7999841329874471	0.7802496860967949	-0.01973444689065218	19.75031390320514	1.5100000000000016	16.349122929386837
3	main	260	1	1	0.8504434829810634	1	0.856019543018192	0.8452553669922054	-0.010764176025986671	45.25536699220534	5.266486794678494	50.44348298106338
3	main	261	1	1	0.8172151290345937	1	0.8239950051065534	0.8077780801104382	-0.016216924996115267	7.778080110438124	4.768089236565865	17.21512903459366
3	main	262	0	1	0.8172900750068948	0.625	0.8239951509749517	0.8052595040062442	-0.018735646968707442	7.778080110438124	1.8849999999999998	17.21512903459366
3	main	263	1	1	0.8004684098996222	1	0.8159951260313392	0.7976458269404247	-0.018349299090914428	2.354173059575304	4.516881504785269	0.4684098996221575
3	main	264	1	1	0.8336820929544047	1	0.8561577190412208	0.8330584380310029	-0.023099281010217965	33.05843803100284	5.015042080301791	33.68209295440461
3	main	265	1	1	0.8175065700197592	1	0.8319892389699817	0.8060100879520178	-0.025979151017963886	6.01008795201774	4.7724189540510995	17.506570019759195
3	main	266	1	1	0.83391314803157	1	0.8320076249074191	0.8172207339666784	-0.014786890940740705	17.22073396667834	5.018545209420845	33.913148031569975
3	main	267	1	1	0.8170951319625601	1	0.8159956610761583	0.8037880159681663	-0.012207645107991993	3.7880159681662473	4.7662809247756375	17.095131962560075
3	main	268	0	1	0.8338567609898746	0.6000000000000001	0.8480799270328134	0.8312152209691703	-0.016864706063643098	3.7880159681662473	1.5100000000000016	17.095131962560075
3	main	269	0	1	0.8169473619200289	0.5750000000000001	0.831988453050144	0.8071152539923787	-0.024873199057765305	3.7880159681662473	1.1350000000000016	17.095131962560075
3	main	270	0	0	NaN	0.55	0.831988453050144	0.8071152539923787	-0.024873199057765305	3.7880159681662473	0.7599999999999998	17.095131962560075
3	main	271	1	1	0.8169766750652343	1	0.8339326489949599	0.8135671360651031	-0.020365512929856777	13.56713606510307	4.764478689865209	16.97667506523426
3	main	272	1	1	0.7989101080456749	1	0.8240653499960899	0.7978566869860515	-0.026208663010038435	2.1433130139485446	4.493503990923054	1.089891954325184
3	main	273	0	0	NaN	0.5750000000000001	0.8240653499960899	0.7978566869860515	-0.026208663010038435	2.1433130139485446	1.1350000000000016	1.089891954325184
3	main	274	1	0	NaN	1	0.8240653499960899	0.7978566869860515	-0.026208663010038435	2.1433130139485446	7.51	1.089891954325184
3	main	275	0	1	0.8339772809995338	0.6000000000000001	0.8560777880484238	0.8326188280479982	-0.023458960000425577	2.1433130139485446	1.5100000000000016	1.089891954325184
3	main	276	1	1	0.1170010439818725	1	0.1280063110170886	0.10757580096833408	-0.020430510048754513	692.4241990316659	-5.735289500919171	682.9989560181275
3	main	277	1	1	0.8170650309184566	1	0.82398856501095	0.8115770110161975	-0.012411553994752467	11.577011016197458	4.765769169423729	17.06503091845657
3	main	278	1	1	0.8500240789726377	1	0.8639964410103858	0.8374190719332546	-0.026577369077131152	37.41907193325456	5.260267179799266	50.02407897263761
3	main	279	0	0	NaN	0.5750000000000001	0.8639964410103858	0.8374190719332546	-0.026577369077131152	37.41907193325456	1.1350000000000016	50.02407897263761
3	main	280	0	1	0.8170464690774679	0.6000000000000001	0.8319950930308551	0.811000275076367	-0.0209948179544881	37.41907193325456	1.5100000000000016	50.02407897263761
3	main	281	1	1	0.8344157770043239	1	0.8480062020244077	0.8312844679458067	-0.016721734078601003	31.28446794580664	5.026038309549913	34.41577700432386
3	main	282	1	1	0.80015998496674	1	0.8159949920373037	0.791449795011431	-0.024545197025872767	8.550204988569066	4.51223749037832	0.15998496673996776
3	main	283	1	1	0.8339740409282967	1	0.839936226955615	0.8171778989490122	-0.022758328006602824	17.177898949012118	5.019391388739459	33.9740409282967
3	main	284	1	1	0.7836802720557898	1	0.791997933993116	0.7703281260328367	-0.021669807960279286	29.671873967163307	4.26505178514868	16.319727944210214
3	main	285	1	1	0.7834572920110077	1	0.7999953309772536	0.7790147509658709	-0.0209805800113827	20.985249034129126	4.261724304049276	16.542707988992376
3	main	286	1	1	0.8167940720450133	1	0.839995758025907	0.8163896800251678	-0.023606078000739217	16.38968002516772	4.761767695997841	16.794072045013266
3	main	287	0	1	0.8003396569984034	0.5750000000000001	0.8080010979901999	0.7839390469016507	-0.024062051088549197	16.38968002516772	1.1350000000000016	16.794072045013266
3	main	288	1	1	0.7831460890593007	1	0.7920055880676955	0.7702160100452602	-0.021789578022435308	29.78398995473985	4.257070285491645	16.853910940699322
3	main	289	0	0	NaN	0.55	0.7920055880676955	0.7702160100452602	-0.021789578022435308	29.78398995473985	0.7599999999999998	16.853910940699322
3	main	290	0	1	0.7836832649772987	0.5750000000000001	0.7919841490220279	0.7696521290345117	-0.022332019987516105	29.78398995473985	1.1350000000000016	16.853910940699322
3	main	291	1	1	0.850610148976557	1	0.855990146053955	0.839253391022794	-0.01673675503116101	39.253391022793906	5.268944349479861	50.610148976556914
3	main	292	1	1	0.8335037670331076	1	0.8319930789293721	0.8169424739899114	-0.015050604939460754	16.942473989911335	5.01245627539698	33.503767033107536
3	main	293	1	1	0.7834981579799205	1	0.8000048550311476	0.7783909339923412	-0.02161392103880644	21.609066007658882	4.262340473467484	16.501842020079536
3	main	294	1	1	0.8335565449669957	1	0.839998904033564	0.8276842409977689	-0.012314663035795093	27.684240997768896	5.0131867303187025	33.55654496699567
3	main	295	1	1	0.816908253938891	1	0.8399872879963368	0.8142107039457187	-0.025776584050618112	14.210703945718661	4.763535984200425	16.90825393889095
3	main	296	1	1	0.8169190370244905	1	0.8159842720488086	0.8034075159812346	-0.012576756067574024	3.4075159812345657	4.763625115263276	16.919037024490493
3	main	297	1	1	0.8170813180040568	1	0.8396974049974233	0.8165632239542902	-0.02313418104313314	16.56322395429011	4.766074614706449	17.08131800405677
3	main	298	1	1	0.8165366509929299	1	0.8239733189111575	0.8035157059784979	-0.020457612932659686	3.5157059784978184	4.757904445393942	16.536650992929893
3	main	299	1	1	0.8340496190357953	1	0.8559932039352134	0.8285879889735952	-0.027405214961618185	28.58798897359516	5.020602084803395	34.04961903579529
3	main	300	1	1	0.8337001799372956	1	0.8400094950338826	0.8269452209351584	-0.013064274098724127	26.94522093515839	5.015360274808481	33.70017993729557
4	main	301	1	1	0.7998831890290603	1	0.8004429700085893	0.7836468900786713	-0.01679607992991805	16.353109921328766	4.508096875613555	0.11681097093974024
4	main	302	0	0	NaN	0.55	0.8004429700085893	0.7836468900786713	-0.01679607992991805	16.353109921328766	0.7599999999999998	0.11681097093974024
4	main	303	1	1	0.7831426779739559	1	0.7919827400473878	0.7781363819958642	-0.013846358051523566	21.86361800413583	4.2570045993104575	16.857322026044173
4	main	304	1	1	0.8504593479447067	1	0.8559983960585669	0.8377737120026723	-0.018224684055894613	37.77371200267221	5.266731879781	50.459347944706636
4	main	305	1	1	0.8336107750656083	1	0.8479872210882604	0.8261064040707424	-0.021880817017517984	26.106404070742386	5.014026686074212	33.61077506560828
4	main	306	1	1	0.7999064070172608	1	0.8000034129945561	0.7908278160030022	-0.009175596991553903	9.172183996997818	4.508513513826765	0.09359298273925454
4	main	307	1	1	0.8332685040077195	1	0.8558241770369932	0.8261983760166913	-0.02962580102030188	26.198376016691284	5.008942749225534	33.268504007719415
4	main	308	1	1	0.816510217031464	1	0.8319973550969735	0.8120760991005227	-0.019921255996450782	12.076099100522653	4.757542090481147	16.510217031463938
4	main	309	1	1	0.8337323289597407	1	0.8560071059037	0.8309493529377505	-0.025057752965949476	30.949352937750476	5.015827869754284	33.732328959740656
4	main	310	1	1	0.8001238199649379	1	0.8000028119422495	0.7896134629845619	-0.010389348957687616	10.386537015438124	4.5117584349261595	0.12381996493782133
4	main	311	1	1	0.8173950440250337	1	0.8319925969699398	0.8085039460565895	-0.023488650913350284	8.50394605658944	4.770719140758738	17.39504402503367
4	main	312	1	1	0.7832592929480597	1	0.7999731210293248	0.7788257449865341	-0.02114737604279071	21.174255013465924	4.258732299893163	16.740707051940305
4	main	313	1	1	0.8333776840008795	1	0.8479946559527889	0.8267797329463065	-0.021214923006482422	26.779732946306424	5.010574089353904	33.37768400087948
4	main	314	0	0	NaN	0.5750000000000001	0.8479946559527889	0.8267797329463065	-0.021214923006482422	26.779732946306424	1.1350000000000016	33.37768400087948
4	main	315	1	1	0.8340194129850715	1	0.8479160870192572	0.8335190560901538	-0.014397030929103494	33.51905609015371	5.020149325826205	34.0194129850715
4	main	316	0	1	0.8330360730178654	0.6000000000000001	0.8560073949629441	0.8251552219735458	-0.03085217298939824	33.51905609015371	1.5100000000000016	34.0194129850715
4	main	317	1	1	0.8505366690224037	1	0.8559558090055361	0.8430536470841616	-0.0129021619213745	43.0536470841616	5.267871116627939	50.536669022403615
4	main	318	1	1	0.8503324859775603	1	0.8479990829946473	0.8373972199624404	-0.010601863032206893	37.39721996244039	5.264831529455259	50.33248597756024
4	main	319	1	1	0.8002322730608284	1	0.8080062159569934	0.7861051430227235	-0.021901072934269905	13.894856977276548	4.513308596322313	0.23227306082840293
4	main	320	1	1	0.8670773119665682	1	0.8799928840016946	0.8588058679597452	-0.02118701604194939	58.805867959745186	5.515982679896988	67.07731196656819
4	main	321	0	1	0.7833040439290926	0.5750000000000001	0.7999942289898172	0.7782346589956433	-0.021759569994173944	58.805867959745186	1.1350000000000016	67.07731196656819
4	main	322	0	0	NaN	0.55	0.7999942289898172	0.7782346589956433	-0.021759569994173944	58.805867959745186	0.7599999999999998	67.07731196656819
4	main	323	1	1	0.8337849980453029	1	0.8480088419746608	0.8308563390746713	-0.017152502899989486	30.856339074671226	5.01655657146126	33.784998045302885
4	main	324	1	1	0.8006104161031544	1	0.816014921059832	0.7911146261030808	-0.024900294956751168	8.885373896919235	4.519022890706546	0.6104161031543764
4	main	325	1	1	0.7837164020165801	1	0.791994358994998	0.7696714999619871	-0.0223228590330109	30.328500038012905	4.265644314107485	16.283597983419938
4	main	326	1	1	0.8000892410054803	1	0.8160059609217569	0.7941221779910848	-0.02188378293067217	5.87782200891529	4.511199655351229	0.08924100548024505
4	main	327	1	1	0.7836904410505667	1	0.808015804970637	0.7801163169788197	-0.027899487991817296	19.883683021180374	4.265222830106504	16.30955894943331
4	main	328	1	1	0.8169789129169658	1	0.8234294940484688	0.8023859519744292	-0.02104354207403958	2.3859519744291457	4.764597924184054	16.97891291696574
4	main	329	1	1	0.8170724790543318	1	0.8320058359531686	0.8108768439851701	-0.021128991967998445	10.876843985170082	4.765944370408542	17.072479054331737
4	main	330	1	1	0.8173199819866568	1	0.8159547710092738	0.8055241069523618	-0.010430664056912065	5.524106952361718	4.769648335166275	17.319981986656742
4	main	331	1	1	0.8002567060757428	1	0.8079978050664067	0.7914177210768685	-0.016580083989538252	8.58227892313157	4.513702661022544	0.25670607574279636
4	main	332	0	1	0.7503510300302878	0.5750000000000001	0.7675449639791623	0.740705418982543	-0.026839544996619225	8.58227892313157	1.1350000000000016	0.25670607574279636
4	main	333	0	0	NaN	0.55	0.7675449639791623	0.740705418982543	-0.026839544996619225	8.58227892313157	0.7599999999999998	0.25670607574279636
4	main	334	1	1	0.8004824420204386	1	0.8240008369321004	0.8000981640070677	-0.023902672925032675	0.09816400706763595	4.517052925182506	0.4824420204385671
4	main	335	1	1	0.8340039019240066	1	0.8316602820996195	0.8203994079958647	-0.011260874103754759	20.399407995864706	5.019922553435899	34.0039019240066
4	main	336	1	1	0.8172484249807894	1	0.8318877710262313	0.8086232360219583	-0.023264535004273057	8.623236021958247	4.768630915312096	17.24842498078938
4	main	337	1	1	0.8148738810559735	1	0.8239804289769381	0.8080112290335819	-0.015969199943356216	8.011229033581868	4.732979649668559	14.873881055973426
4	main	338	1	1	0.7505818289937451	1	0.7759978579124436	0.7501167259179056	-0.02588113199453801	49.883274082094474	3.7684923836402593	49.418171006254894
4	main	339	1	1	0.8170159769942984	1	0.8239994060713798	0.8008761099772528	-0.023123296094127	0.876109977252737	4.765066058714874	17.015976994298356
4	main	340	0	0	NaN	0.5750000000000001	0.8239994060713798	0.8008761099772528	-0.023123296094127	0.876109977252737	1.1350000000000016	17.015976994298356
4	main	341	0	1	0.8174363740254194	0.6000000000000001	0.8240047780564055	0.8087907719891518	-0.01521400606725365	0.876109977252737	1.5100000000000016	17.015976994298356
4	main	342	1	1	0.8505073949927464	1	0.8640033989213407	0.8436336099402979	-0.020369788981042802	43.63360994029786	5.267471484947018	50.50739499274637
4	main	343	1	1	0.8005853230133653	1	0.8079985319636762	0.7962694809539244	-0.011729051009751856	3.7305190460756865	4.51862746045459	0.5853230133652243
4	main	344	1	1	0.8004449009895325	1	0.824066724977456	0.7980626779608428	-0.026004047016613185	1.9373220391571966	4.516512173684314	0.4449009895324263
4	main	345	1	1	0.8504676760639995	1	0.8554054140113294	0.8341594990342855	-0.021245914977043867	34.1594990342855	5.266851610029116	50.46767606399949
4	main	346	1	1	0.8336212700232863	1	0.8480090770171955	0.8258846870157868	-0.022124390001408756	25.884687015786724	5.014177135997452	33.6212700232863
4	main	347	0	0	NaN	0.5750000000000001	0.8480090770171955	0.8258846870157868	-0.022124390001408756	25.884687015786724	1.1350000000000016	33.6212700232863
4	main	348	1	1	0.8170035269577056	1	0.8159934520954266	0.8015112120192498	-0.014482240076176822	1.5112120192497525	4.764912984208204	17.003526957705574
4	main	349	0	1	0.7832358219893649	0.6000000000000001	0.8000146209960803	0.7728466219268739	-0.027167999069206417	1.5112120192497525	1.5100000000000016	17.003526957705574
4	main	350	1	1	0.7838039780035615	1	0.7919216329464689	0.7780152639606968	-0.013906368985772133	21.984736039303286	4.2669085740251465	16.196021996438546
4	main	351	1	1	0.8003791029332206	1	0.8079991729464382	0.7893128779251128	-0.01868629502132535	10.687122074887201	4.515527139408514	0.3791029332205209
4	main	352	0	0	NaN	0.5750000000000001	0.8079991729464382	0.7893128779251128	-0.01868629502132535	10.687122074887201	1.1350000000000016	0.3791029332205209
4	main	353	1	1	0.8504949039779603	1	0.8719960330054164	0.8468593719881028	-0.0251366610173136	46.85937198810275	5.267261348888278	50.494903977960305
4	main	354	1	1	0.7837590780109167	1	0.7916149529628456	0.7684143809601665	-0.02320057200267911	31.58561903983359	4.266215109489858	16.240921989083333
4	main	355	1	1	0.7669980170903727	1	0.776306399027817	0.7635760320117697	-0.01273036701604724	36.42396798823033	4.014874360398389	33.0019829096273
4	main	356	0	1	0.8337076770840213	0.6000000000000001	0.8400034769438207	0.8226480550365523	-0.017355421907268465	36.42396798823033	1.5100000000000016	33.0019829096273
4	main	357	1	1	0.8171506769722328	1	0.8320823739049956	0.8154273919062689	-0.016654981998726726	15.42739190626885	4.767113514933735	17.150676972232716
4	main	358	1	1	0.816954059060663	1	0.8159836049890146	0.8065498099895194	-0.009433794999495149	6.549809989519373	4.764141985322349	16.954059060662942
4	main	359	0	0	NaN	0.5750000000000001	0.8159836049890146	0.8065498099895194	-0.009433794999495149	6.549809989519373	1.1350000000000016	16.954059060662942
4	main	360	1	1	0.833850943017751	1	0.8399432291043922	0.8221313760150224	-0.017811853089369833	22.131376015022354	5.017630418986082	33.850943017750936
4	main	361	1	1	0.8668496479513124	1	0.8800195769872516	0.8613256480311975	-0.01869392895605415	61.325648031197446	5.512625769586302	66.84964795131232
4	main	362	0	1	0.7837699759984389	0.6000000000000001	0.7920029310043901	0.7772344870027155	-0.014768444001674652	61.325648031197446	1.5100000000000016	66.84964795131232
4	main	363	1	1	0.7837417640257627	1	0.8000211799517274	0.7799646490020677	-0.020056530949659646	20.035350997932298	4.2659627949958665	16.258235974237365
4	main	364	1	1	0.8001730289543048	1	0.8000120470533147	0.7837718810187653	-0.016240166034549475	16.228118981234772	4.512444340032525	0.17302895430471033
4	main	365	1	1	0.7838138369843364	1	0.8079895089613274	0.776730288984254	-0.03125921997707337	23.26971101574604	4.267050984306261	16.186163015663666
4	main	366	1	1	0.8002080300357193	1	0.8159953990252689	0.7870871460763738	-0.028908252948895097	12.912853923626288	4.512997795352712	0.20803003571923107
4	main	367	1	1	0.81759172398597	1	0.8319974530022591	0.8133233240805566	-0.018674128921702504	13.323324080556587	4.773762880465947	17.591723985969978
4	main	368	0	0	NaN	0.5750000000000001	0.8319974530022591	0.8133233240805566	-0.018674128921702504	13.323324080556587	1.1350000000000016	17.591723985969978
4	main	369	0	1	0.8339767779689282	0.6000000000000001	0.8399964360287413	0.8208636060589924	-0.019132829969748855	13.323324080556587	1.5100000000000016	17.591723985969978
4	main	370	0	0	NaN	0.5750000000000001	0.8399964360287413	0.8208636060589924	-0.019132829969748855	13.323324080556587	1.1350000000000016	17.591723985969978
4	main	371	1	1	0.7838765750639141	1	0.8000393830006942	0.7832118651131168	-0.016827517887577415	16.788134886883242	4.268008136530407	16.123424936085982
4	main	372	1	1	0.8506960599916056	1	0.8560615030582994	0.834931218996644	-0.021130284061655402	34.93121899664398	5.270296509368345	50.69605999160554
4	main	373	0	1	0.8174024700419977	0.6000000000000001	0.8160012289881706	0.8019802470225841	-0.014020981965586543	34.93121899664398	1.5100000000000016	50.69605999160554
4	main	374	1	1	0.8171108179958537	1	0.8240037299692631	0.80861355306115	-0.015390176908113062	8.61355306114997	4.7665269703045485	17.11081799585368
4	main	375	0	1	0.8002060019643977	0.5750000000000001	0.8159990389831364	0.7866178560070693	-0.029381182976067066	8.61355306114997	1.1350000000000016	17.11081799585368
4	main	376	1	1	0.8005237909965217	1	0.82386539503932	0.7967707860516384	-0.027094608987681568	3.22921394836162	4.517719059474766	0.5237909965216669
4	main	377	1	1	0.8008415369549766	1	0.8160198280820623	0.7909023870015517	-0.025117441080510616	9.097612998448357	4.522459434336051	0.8415369549765739
4	main	378	1	1	0.8169964459957555	1	0.8240022469544783	0.8106406519655138	-0.013361594988964498	10.640651965513781	4.7647871351707725	16.99644599575545
4	main	379	0	0	NaN	0.55	0.8240022469544783	0.8106406519655138	-0.013361594988964498	10.640651965513781	0.7599999999999998	16.99644599575545
4	main	380	0	1	0.8004085778957233	0.5750000000000001	0.8161006239242852	0.7994376379065216	-0.016662986017763615	10.640651965513781	1.1350000000000016	16.99644599575545
4	main	381	1	1	0.8504158090800047	1	0.8639950780197978	0.8459660860244185	-0.01802899199537933	45.96608602441843	5.266096210214309	50.41580908000465
4	main	382	1	1	0.8169904709793627	1	0.8240007570711896	0.8074750970117748	-0.016525660059414804	7.475097011774734	4.764710484412499	16.990470979362684
4	main	383	1	1	0.7838135189376771	1	0.7920093169668689	0.7772555809933692	-0.014753735973499715	22.74441900663082	4.267050355663523	16.186481062322898
4	main	384	1	1	0.8001199220307171	1	0.8159864250337705	0.7971017230302095	-0.01888470200356096	2.898276969790503	4.5116563904937355	0.11992203071709007
4	main	385	1	1	0.7837576509919018	1	0.8000400509918109	0.776199201005511	-0.023840849986299872	23.800798994489057	4.266263005081564	16.242349008098287
4	main	386	1	1	0.8003258079988882	1	0.8079918359871954	0.7958148249890655	-0.012177010998129845	4.1851750109345165	4.514779478884302	0.32580799888815015
4	main	387	0	1	0.7672086310340092	0.55	0.760003290954046	0.7512581719784066	-0.008745118975639343	4.1851750109345165	0.7599999999999998	0.32580799888815015
4	main	388	1	1	0.8169216420501471	1	0.8240111089544371	0.8131205249810591	-0.010890583973377943	13.12052498105909	4.7636926297470925	16.921642050147014
4	main	389	0	0	NaN	0.5250000000000001	0.8240111089544371	0.8131205249810591	-0.010890583973377943	13.12052498105909	0.38500000000000156	16.921642050147014
4	main	390	0	0	NaN	0.55	0.8240111089544371	0.8131205249810591	-0.010890583973377943	13.12052498105909	0.7599999999999998	16.921642050147014
4	main	391	1	1	0.7671275630127639	1	0.7760039719287306	0.7564480049768463	-0.01955596695188433	43.551995023153765	4.01672068062704	32.872436987236185
4	main	392	1	1	0.8005164170172065	1	0.8079963640775532	0.79198770201765	-0.016008662059903145	8.012297982350036	4.517576979231089	0.5164170172065052
4	main	393	1	1	0.8007802129723132	1	0.8159928669920191	0.7941060989396647	-0.021886768052354455	5.8939010603353825	4.521570100439712	0.7802129723131213
4	main	394	1	1	0.8006738830590621	1	0.8160292230313644	0.7986659480957314	-0.017363274935632944	1.3340519042686072	4.519484276059083	0.6738830590620193
4	main	395	1	1	0.8154192109359428	1	0.8561203400604427	0.8136215580161661	-0.042498782044276595	13.621558016166047	4.741157334754243	15.419210935942784
4	main	396	1	1	0.8166226779576391	1	0.8319951789453626	0.8071636699605733	-0.024831508984789252	7.163669960573271	4.7592620203411204	16.622677957639056
4	main	397	1	1	0.8169629870681092	1	0.8159983200021088	0.8017942450242117	-0.014204074977897108	1.7942450242116603	4.764316330654546	16.96298706810917
4	main	398	1	1	0.783772727008909	1	0.7919866420561448	0.7804067900869995	-0.011579851969145238	19.593209913000507	4.266448945379816	16.227272991091056
4	main	399	1	1	0.800283742020838	1	0.8240493719931692	0.7991744710598141	-0.024874900933355093	0.8255289401859489	4.5141142002446575	0.2837420208379182
4	main	400	1	1	0.8172363319899887	1	0.8319915970787406	0.8139882870018482	-0.018003310076892376	13.988287001848176	4.768350699557923	17.236331989988642
