Block	TrialType	Trial	Signal	Response	RT	SSD	keyDuration	keyDuration_startSyched	keyRT	feedback_ms	vert	feedback_synched
1	practice	1	1	1	0.8670914609992906	1	0.8880137859996466	0.8620289779992163	-0.02598480800043035	62.02897799921625	5.516256879998545	67.09146099929053
1	practice	2	0	1	0.13282316200002242	0.5	0.15999859800012928	0.12588678400061326	-0.034111813999516016	62.02897799921625	-5.497813339991117	67.09146099929053
1	main	1	1	1a002525	1	0.8240138159999333	0.8091746540003442	-0.014839161999589123	9.174654000344118	4.718533809998698	13.909790000252498
1	main	71	0	0	NaN	0.55	0.8240138159999333	0.8091746540003442	-0.014839161999589123	9.174654000344118	0.7599999999999998	13.909790000252498
1	main	72	1	1	0.7675168850000773	1	0.7681140929998946	0.7577361690000544	-0.010377923999840277	42.26383099994568	4.022617435005268	32.48311499992273
1	main	73	1	1	0.7836179849991822	1	0.8001264160002393	0.7825469419994988	-0.017579474000740447	17.45305800050123	4.264162869992797	16.382015000817816
1	main	74	1	1	0.783685952000269	1	0.7920181099998445	0.7723491550004837	-0.01966895499936072	27.65084499951631	4.265162455001482	16.314047999731017
1	main	75	0	1	0.8167357169995739	0.5750000000000001	0.8241305569999895	0.8102298129997507	-0.013900744000238774	27.65084499951631	1.1350000000000016	16.314047999731017
1	main	76	1	1	0.850480017999871	1	0.8560012269999788	0.8357702450002762	-0.020230981999702635	35.77024500027615	5.267053990003442	50.48001799987101
1	main	77	1	1	0.8329336080005305	1	0.8560327599998345	0.8280022970002392	-0.02803046299959533	28.002297000239153	5.0038716700035	32.93360800053047
1	main	78	1	1	0.8169896409999637	1	0.8320337260001907	0.8124393709995275	-0.0195943550006632	12.43937099952741	4.764709690000709	16.989640999963697
1	main	79	1	1	0.7838977979999981	1	0.8000004639998224	0.7712938320000831	-0.02870663199973933	28.706167999916985	4.268274354997411	16.102202000001895
1	main	80	1	1	0.8655038030001379	1	0.8800072230005753	0.8649419300008958	-0.015065292999679514	64.94193000089577	5.492392360004269	65.50380300013781
1	main	81	0	1	0.7672026380005263	0.55	0.7761219349995372	0.7540008260002651	-0.02212110899927211	64.94193000089577	0.7599999999999998	65.50380300013781
1	main	82	0	0	NaN	0.5250000000000001	0.7761219349995372	0.7540008260002651	-0.02212110899927211	64.94193000089577	0.38500000000000156	65.50380300013781
1	main	83	1	1	0.7664126439995016	1	0.7759823309997955	0.7537788969993926	-0.022203434000402922	46.22110300060744	4.006094694994099	33.587356000498445
1	main	84	1	1	0.7845763379991695	1	0.7921329190003235	0.7721349519997602	-0.01999796700056322	27.86504800023981	4.278514929999583	15.423662000830562
1	main	85	1	1	0.8339029460003076	1	0.8400212180004019	0.8195230159999483	-0.020498202000453603	19.523015999948214	5.018410959994762	33.90294600030752
1	main	86	0	1	0.7336280859999533	0.55	0.7357750800001668	0.7174026200000299	-0.018372460000136925	19.523015999948214	0.7599999999999998	33.90294600030752
1	main	87	1	1	0.7671320139997988	1	0.7760480659999303	0.7633980209993751	-0.01265004500055511	36.601979000624894	4.016863209992843	32.86798600020124
1	main	88	1	1	0.7510479780003152	1	0.7600505600003089	0.7415821390004567	-0.018468420999852242	58.41786099954338	3.775626684999006	48.952021999684845
1	main	89	1	1	0.833508561000599	1	0.8481150329998854	0.8240371660003802	-0.024077866999505204	24.037166000380196	5.012479660006429	33.50856100059896
1	main	90	1	1	0.8502857009998479	1	0.8560450029999629	0.8460987409998779	-0.009946262000084971	46.098740999877876	5.26418471499961	50.28570099984786
1	main	91	0	1	0.7497268819997771	0.5250000000000001	0.7601107530008449	0.7450822930004506	-0.015028460000394261	46.098740999877876	0.38500000000000156	50.28570099984786
1	main	92	1	1	0.8336366519997682	1	0.840000489999511	0.8196458689999417	-0.020354620999569306	19.645868999941698	5.014404654996506	33.636651999768176
1	main	93	0	0	NaN	0.5	0.840000489999511	0.8196458689999417	-0.020354620999569306	19.645868999941698	0.009999999999999787	33.636651999768176
1	main	94	1	1	0.867358955999407	1	0.888000189000195	0.857858178999777	-0.03014201000041794	57.85817899977697	5.5202567199901384	67.358955999407
1	main	95	1	1	0.7669675639999696	1	0.7761290989992631	0.7617268469994087	-0.014402251999854343	38.27315300059131	4.014422154989697	33.03243600003047
1	main	96	1	1	0.8339125940001395	1	0.8479910480000399	0.8190198780002902	-0.02897116999974969	19.01987800029015	5.018599600005254	33.912594000139464
1	main	97	1	1	0.7836418950000734	1	0.7840766330000406	0.769928988999709	-0.014147644000331638	30.07101100029108	4.2645011049969614	16.358104999926624
1	main	98	1	1	0.88363174099959	1	0.8880445739996503	0.8689442589993632	-0.019100315000287083	68.94425899936319	5.764333149998274	83.63174099958992
1	main	99	1	1	0.8170827550002286	1	0.8241015210005571	0.8041625280002336	-0.019938993000323535	4.162528000233534	4.7660919250008735	17.0827550002286
1	main	100	0	0	NaN	0.5250000000000001	0.8241015210005571	0.8041625280002336	-0.019938993000323535	4.162528000233534	0.38500000000000156	17.0827550002286
2	main	101	1	1	0.767004690000249	1	0.783986116000051	0.7621834350002246	-0.021802680999826407	37.81656499977548	4.014893424998954	32.995309999751086
2	main	102	0	1	0.7827413240001988	0.55	0.792054876000293	0.7793377480002164	-0.012717128000076627	37.81656499977548	0.7599999999999998	32.995309999751086
2	main	103	0	0	NaN	0.5250000000000001	0.792054876000293	0.7793377480002164	-0.012717128000076627	37.81656499977548	0.38500000000000156	32.995309999751086
2	main	104	1	1	0.8835272289998102	1	0.8800245160000486	0.868886494000435	-0.011138021999613557	68.88649400043501	5.762825319996191	83.52722899981013
2	main	105	1	1	0.8338149729997895	1	0.8559951650004223	0.8300699049996183	-0.025925260000803974	30.06990499961826	5.017121095000002	33.81497299978942
2	main	106	1	1	0.849832420999519	1	0.8561061789996529	0.8453474949992597	-0.01075868400039326	45.34749499925961	5.257399119994043	49.8324209995189
2	main	107	0	0	NaN	0.55	0.8561061789996529	0.8453474949992597	-0.01075868400039326	45.34749499925961	0.7599999999999998	49.8324209995189
2	main	108	0	1	0.799679370999911	0.5750000000000001	0.808119540000007	0.7921437109998806	-0.015975829000126396	45.34749499925961	1.1350000000000016	49.8324209995189
2	main	109	1	1	0.8163574259997404	1	0.8240997849998166	0.8074079519992665	-0.016691833000550105	7.407951999266471	4.755260079989748	16.35742599974033
2	main	110	1	1	0.7841736239997772	1	0.7920751109995763	0.781980609999664	-0.01009450099991227	18.01939000033603	4.272471939991883	15.826376000222853
2	main	111	1	1	0.8336896729997534	1	0.8400113940006122	0.8278757180005414	-0.012135676000070816	27.87571800054134	5.015206630007706	33.68967299975334
2	main	112	1	1	0.8170367780003289	1	0.8320395600003394	0.8074120070004938	-0.024627552999845648	7.412007000493714	4.765471524999848	17.03677800032888
2	main	113	1	1	0.7319428279997737	1	0.7440605570000116	0.7212397439998313	-0.02282081300018035	78.76025600016878	3.4889984200051547	68.05717200022632
2	main	114	1	1	0.8668051249997006	1	0.8800129060000472	0.8566576099992744	-0.023355296000772796	56.657609999274385	5.511987714997085	66.8051249997006
2	main	115	1	1	0.833577525999317	1	0.8560254040003201	0.8284132389999286	-0.027612165000391542	28.413238999928538	5.013487434996714	33.57752599931696
2	main	116	0	0	NaN	0.55	0.8560254040003201	0.8284132389999286	-0.027612165000391542	28.413238999928538	0.7599999999999998	33.57752599931696
2	main	117	1	1	0.7670706939998126	1	0.7680343599995467	0.7574647809997259	-0.010569578999820806	42.535219000274125	4.01593093000225	32.929306000187395
2	main	118	1	1	0.8341388280005049	1	0.8321057749999454	0.8239982120003333	-0.008107562999612128	23.998212000333254	5.021936995010728	34.13882800050483
2	main	119	1	1	0.7831817960004628	1	0.792103887999474	0.7774789209997834	-0.014624966999690514	22.521079000216602	4.257641319998365	16.81820399953726
2	main	120	1	1	0.8512740309997753	1	0.8560156590001498	0.8338639300000068	-0.02215172900014295	33.86393000000676	5.2789622800016875	51.274030999775235
2	main	121	0	0	NaN	0.5750000000000001	0.8560156590001498	0.8338639300000068	-0.02215172900014295	33.86393000000676	1.1350000000000016	51.274030999775235
2	main	122	1	1	0.7671987450003144	1	0.767994634000388	0.7553407929999594	-0.012653841000428656	44.65920700004067	4.0178081499996185	32.80125499968567
2	main	123	1	1	0.8671937920007622	1	0.8800073699994755	0.8667897129998892	-0.013217656999586325	66.78971299988912	5.517758050002849	67.19379200076214
2	main	124	1	1	0.8505374629994549	1	0.8560383820004063	0.8481927479997466	-0.00784563400065963	48.1927479997466	5.267977944993399	50.53746299945483
2	main	125	0	1	0.7668104210006277	0.6000000000000001	0.7761220649999814	0.7576231740004005	-0.018498890999580908	48.1927479997466	1.5100000000000016	50.53746299945483
2	main	126	1	1	0.7830510450003203	1	0.7921015940000871	0.7750104079996163	-0.01709118600047077	24.98959200038375	4.255672719998765	16.948954999679742
2	main	127	1	1	0.7996185919992058	1	0.8000479590000396	0.7850979499999085	-0.014950009000131104	14.902050000091593	4.504127004991242	0.38140800079422554
2	main	128	1	1	0.8008563550001782	1	0.8000403530004405	0.7899453569998514	-0.010094996000589163	10.054643000148689	4.522742740002977	0.8563550001781106
2	main	129	1	1	0.8159468990006644	1	0.8240403019999576	0.8110356440001851	-0.013004657999772462	11.035644000185085	4.748991640006134	15.946899000664372
2	main	130	1	1	0.8498951459996533	1	0.8561119060004785	0.8443287740001324	-0.011783132000346086	44.328774000132356	5.258342409990982	49.89514599965328
2	main	131	1	1	0.8343097120005041	1	0.8480803599995852	0.8329745860000912	-0.015105773999493977	32.97458600009118	5.024536045000568	34.309712000504035
2	main	132	0	0	NaN	0.5750000000000001	0.8480803599995852	0.8329745860000912	-0.015105773999493977	32.97458600009118	1.1350000000000016	34.309712000504035
2	main	133	1	1	0.7674676520000503	1	0.7841699620003055	0.7668488850003996	-0.017321076999905927	33.15111499960044	4.021916755007405	32.53234799994975
2	main	134	1	1	0.8834320149999257	1	0.8881320579994281	0.8680953319999389	-0.020036725999489136	68.09533199993889	5.761397049998559	83.4320149999257
2	main	135	1	1	0.6831922979999945	1	0.704090893999819	0.6792476450000322	-0.024843248999786738	120.75235499996784	2.7577860700037125	116.80770200000556
2	main	136	1	1	0.7331677400006811	1	0.744112438999764	0.7245698930000799	-0.01954254599968408	75.43010699992014	3.507378145002585	66.83225999931896
2	main	137	1	1	0.8508106139997835	1	0.8481024040002012	0.8381486790003692	-0.009953724999832048	38.148679000369114	5.272016755009426	50.810613999783484
2	main	138	1	1	0.850217948000136	1	0.8641332659999534	0.8427005490002557	-0.021432716999697732	42.70054900025566	5.2631804649925105	50.217948000135905
2	main	139	0	1	0.7672037399997862	0.6000000000000001	0.783991180999692	0.7617477129997496	-0.022243467999942368	42.70054900025566	1.5100000000000016	50.217948000135905
2	main	140	0	0	NaN	0.5750000000000001	0.783991180999692	0.7617477129997496	-0.022243467999942368	42.70054900025566	1.1350000000000016	50.217948000135905
2	main	141	1	1	0.8663249379997069	1	0.8880061560003014	0.8618248439997842	-0.02618131200051721	61.824843999784164	5.504667639995896	66.32493799970685
2	main	142	1	1	0.7834269610002593	1	0.8000094690005426	0.7800301280003623	-0.019979341000180284	19.969871999637732	4.26124059999689	16.573038999740717
2	main	143	0	1	0.7669403330000932	0.6000000000000001	0.7841241699998136	0.761503366999932	-0.022620802999881562	19.969871999637732	1.5100000000000016	16.573038999740717
2	main	144	0	1	0.8168728310001825	0.5750000000000001	0.8239883919995918	0.8096084990002055	-0.014379892999386357	19.969871999637732	1.1350000000000016	16.573038999740717
2	main	145	0	0	NaN	0.55	0.8239883919995918	0.8096084990002055	-0.014379892999386357	19.969871999637732	0.7599999999999998	16.573038999740717
2	main	146	1	1	0.8336224619997665	1	0.8400187810002535	0.8181688610002311	-0.021849920000022394	18.168861000231075	5.014198899996481	33.622461999766486
2	main	147	0	1	0.7664466180003728	0.5750000000000001	0.7920659000001251	0.7648650090004594	-0.027200890999665717	18.168861000231075	1.1350000000000016	33.622461999766486
2	main	148	1	1	0.8333256390005772	1	0.8319846109998252	0.817790492000313	-0.014194118999512284	17.79049200031291	5.009796190008965	33.32563900057717
2	main	149	1	1	0.9005083290003313	1	0.9121125499996197	0.8953071400001136	-0.016805409999506082	95.30714000011353	6.017531470004323	100.50832900033124
2	main	150	0	1	0.7003689610000947	0.55	0.7200975189998644	0.6984304670004349	-0.021667051999429532	95.30714000011353	0.7599999999999998	100.50832900033124
2	main	151	1	1	0.8672699790004117	1	0.8640108239997062	0.8511309069999697	-0.012879916999736452	51.130906999969696	5.518918285004256	67.26997900041165
2	main	152	1	1	0.7501152119994003	1	0.760008979000304	0.7356399089994738	-0.024369070000830106	64.3600910005262	3.7616401299944844	49.8847880005997
2	main	153	1	1	0.8347869829995034	1	0.8399698570001419	0.8231628599996839	-0.016806997000458068	23.162859999683818	5.031608739998555	34.78698299950334
2	main	154	1	1	0.8662771570006953	1	0.8720860240000547	0.8515648970005714	-0.020521126999483386	51.56489700057132	5.504016895008826	66.27715700069525
2	main	155	1	1	0.7496050149993607	1	0.7680021090000082	0.7441375569997035	-0.023864552000304684	55.86244300029652	3.753982555001821	50.39498500063932
2	main	156	1	1	0.8002617400006784	1	0.8080996970002161	0.7908491870002763	-0.017250509999939823	9.150812999723756	4.513781605003496	0.26174000067835657
2	main	157	1	1	0.7995420070001273	1	0.808103583999582	0.7935268299997915	-0.014576753999790526	6.473170000208528	4.503045594995237	0.4579929998727028
2	main	158	1	1	0.8003609050001614	1	0.8159876380004789	0.7912793280002006	-0.02470831000027829	8.720671999799423	4.515050500001744	0.3609050001613934
2	main	159	1	1	0.8503034940004	1	0.8560305520004476	0.8426147850004782	-0.013415766999969492	42.61478500047811	5.264444575007255	50.30349400039991
2	main	160	0	0	NaN	0.5250000000000001	0.8560305520004476	0.8426147850004782	-0.013415766999969492	42.61478500047811	0.38500000000000156	50.30349400039991
2	main	161	1	1	0.7836284530003468	1	0.7919893870002852	0.771424508000564	-0.02056487899972126	28.575491999436096	4.2643327150042385	16.371546999653262
2	main	162	1	1	0.8339519809997	1	0.8400100449998718	0.8261663799994494	-0.013843665000422334	26.166379999449376	5.019169194991045	33.951980999699984
2	main	163	1	1	0.8179120470003909	1	0.8160209120005675	0.7999726650004959	-0.01604824700007157	0.027334999504136093	4.778537965001087	17.912047000390842
2	main	164	1	1	0.8647728639998604	1	0.8640188039998975	0.8509281289998398	-0.013090675000057672	50.928128999839785	5.48148329499123	64.77286399986038
2	main	165	0	0	NaN	0.55	0.8640188039998975	0.8509281289998398	-0.013090675000057672	50.928128999839785	0.7599999999999998	64.77286399986038
2	main	166	1	1	0.7835964639998565	1	0.7921160440000676	0.7734171100000822	-0.018698933999985456	26.582889999917867	4.263809680003542	16.403536000143546
2	main	167	1	1	0.883694289000232	1	0.8880105160005769	0.8678277440003512	-0.02018277200022567	67.82774400035119	5.7653026900041	83.6942890002319
2	main	168	1	1	0.8664851539997471	1	0.8720089379994533	0.8538233919998675	-0.018185545999585884	53.82339199986741	5.507192770003494	66.48515399974708
2	main	169	1	1	0.7842636080004013	1	0.7920057479996103	0.7691772210000636	-0.02282852699954674	30.82277899993646	4.273823530009176	15.736391999598753
2	main	170	1	1	0.8006613690004087	1	0.8080474220005271	0.7899573340000643	-0.018090088000462856	10.042665999935751	4.519769755004527	0.6613690004086958
2	main	171	0	0	NaN	0.5750000000000001	0.8080474220005271	0.7899573340000643	-0.018090088000462856	10.042665999935751	1.1350000000000016	0.6613690004086958
2	main	172	1	1	0.8328534190004575	1	0.8400007430000187	0.8256452559999161	-0.014355487000102585	25.645255999916074	5.002708765003044	32.853419000457464
2	main	173	1	1	0.7500348129997292	1	0.7600100509998811	0.7421880379997674	-0.017822013000113657	57.81196200023264	3.7604210800079816	49.96518700027086
2	main	174	1	1	0.7662292719996913	1	0.7761042299998735	0.7586354610002672	-0.017468768999606255	41.3645389997328	4.003353100004242	33.77072800030878
2	main	175	0	1	0.7496460570000636	0.6000000000000001	0.7681047039995974	0.744728935999774	-0.023375767999823438	41.3645389997328	1.5100000000000016	33.77072800030878
2	main	176	1	1	0.8170706400005656	1	0.8240025409995724	0.8105645679997906	-0.013437972999781778	10.564567999790553	4.76592032500117	17.070640000565575
2	main	177	1	1	0.7829532200003086	1	0.80001700000048	0.7753974900006142	-0.02461950999986584	24.602509999385845	4.254212425005571	17.046779999691395
2	main	178	1	1	0.8336127099992154	1	0.8480032019997452	0.8312044559997958	-0.01679874599994946	31.204455999795712	5.0140976049967865	33.6127099992154
2	main	179	1	1	0.8336539539996011	1	0.8480256829998325	0.8227037469996503	-0.025321936000182177	22.703746999650278	5.0147242749997165	33.65395399960103
2	main	180	1	1	0.8000407429999541	1	0.8080198569996355	0.7926325979997273	-0.015387258999908227	7.367402000272749	4.510419579999288	0.04074299995404651
2	main	181	0	0	NaN	0.5750000000000001	0.8080198569996355	0.7926325979997273	-0.015387258999908227	7.367402000272749	1.1350000000000016	0.04074299995404651
2	main	182	0	0	NaN	0.6000000000000001	0.8080198569996355	0.7926325979997273	-0.015387258999908227	7.367402000272749	1.5100000000000016	0.04074299995404651
2	main	183	1	1	0.850297529999807	1	0.8560974800002441	0.8443073879998337	-0.011790092000410368	44.30738799983369	5.264377014998681	50.29752999980697
2	main	184	1	1	0.8177452449999691	1	0.8241573140003311	0.8171528339998986	-0.0070044800004325225	17.152833999898533	4.77607038999191	17.745244999969103
2	main	185	1	1	0.833077852000315	1	0.8400477739996859	0.8273875049999333	-0.012660268999752589	27.387504999933256	5.006076999996148	33.07785200031499
2	main	186	0	1	0.7998972559998947	0.625	0.8081052260004071	0.7909521760002463	-0.017153050000160874	27.387504999933256	1.8849999999999998	33.07785200031499
2	main	187	1	1	0.8004336100002547	1	0.8160087359992758	0.7971363449996716	-0.01887239099960425	2.86365500032848	4.516339945000945	0.43361000025465835
2	main	188	1	1	0.8669206849999682	1	0.8800100440003007	0.8596407020004335	-0.020369341999867174	59.64070200043348	5.51361205000172	66.92068499996817
2	main	189	1	1	0.8168766050002887	1	0.8159848680006689	0.803842502000407	-0.012142366000261973	3.842502000406922	4.763069049997975	16.87660500028865
2	main	190	1	1	0.8511125719996926	1	0.8560008409995135	0.8377063419993647	-0.01829449900014879	37.706341999364625	5.276516169990609	51.11257199969255
2	main	191	0	1	0.800635204000173	0.6000000000000001	0.8159979239999302	0.7949501820003206	-0.02104774199960957	37.706341999364625	1.5100000000000016	51.11257199969255
2	main	192	1	1	0.8175942010002473	1	0.8240303630000199	0.8001152830001956	-0.02391507999982423	0.11528300019558735	4.773775210008134	17.594201000247224
2	main	193	0	0	NaN	0.5750000000000001	0.8240303630000199	0.8001152830001956	-0.02391507999982423	0.11528300019558735	1.1350000000000016	17.594201000247224
2	main	194	1	1	0.7830631870001525	1	0.8002164079998693	0.7823193300000639	-0.017897077999805333	17.680669999936114	4.25584003000291	16.936812999847504
2	main	195	1	1	0.8676592570000139	1	0.8640303679994759	0.8517401769995558	-0.012290190999920014	51.7401769995558	5.524739560003363	67.65925700001385
2	main	196	1	1	0.8010302490001777	1	0.8080205500000375	0.7864379120001104	-0.0215826379999271	13.562087999889672	4.525307605006455	1.0302490001776743
2	main	197	1	1	0.7995045429997845	1	0.8081054389995188	0.793971641999633	-0.014133796999885817	6.028358000367051	4.502470659997707	0.49545700021558226
2	main	198	1	1	0.8173629279999659	1	0.8160038340001847	0.8025082320000365	-0.01349560200014821	2.50823200003647	4.770290544991221	17.362927999965862
2	main	199	1	1	0.8172484940005234	1	0.8319891350001853	0.8143560600001365	-0.017633075000048848	14.35606000013645	4.768617984998636	17.24849400052331
2	main	200	0	1	0.7843366359993524	0.6000000000000001	0.8000593200004005	0.7831706779998058	-0.0168886420005947	14.35606000013645	1.5100000000000016	17.24849400052331
3	main	201	1	1	0.8003575519996957	1	0.8240038370004186	0.7972389500000645	-0.026764887000354065	2.7610499999355387	4.515184884992559	0.3575519996956711
3	main	202	0	1	0.8170270299997355	0.5750000000000001	0.8241189000000304	0.8057193080003344	-0.018399591999695986	2.7610499999355387	1.1350000000000016	0.3575519996956711
3	main	203	0	0	NaN	0.55	0.8241189000000304	0.8057193080003344	-0.018399591999695986	2.7610499999355387	0.7599999999999998	0.3575519996956711
3	main	204	1	1	0.8496519029995397	1	0.8641064009998445	0.8435638000000836	-0.020542600999760907	43.56380000008353	5.254681989997843	49.6519029995397
3	main	205	1	1	0.9005327160002707	1	0.9119977390000713	0.8909844460004024	-0.02101329299966892	90.98444600040234	6.017694130003074	100.5327160002707
3	main	206	1	1	0.8003787020006712	1	0.8161036490000697	0.7923438550005812	-0.023759793999488465	7.656144999418801	4.515586330010374	0.37870200067113835
3	main	207	0	0	NaN	0.5750000000000001	0.8161036490000697	0.7923438550005812	-0.023759793999488465	7.656144999418801	1.1350000000000016	0.37870200067113835
3	main	208	0	1	0.8170060239999657	0.6000000000000001	0.8320005180003136	0.8102638600003047	-0.0217366580000089	7.656144999418801	1.5100000000000016	0.37870200067113835
3	main	209	1	1	0.8502342650008359	1	0.8560256110004048	0.8428540800005067	-0.013171530999898096	42.85408000050661	5.263337185013151	50.23426500083583
3	main	210	1	1	0.8507426899996062	1	0.8640218139998979	0.8350656179991347	-0.028956196000763157	35.06561799913466	5.270952339990581	50.742689999606185
3	main	211	1	1	0.8168221059995631	1	0.8320098800004416	0.8107089969998924	-0.02130088300054922	10.708996999892362	4.762234374991531	16.82210599956302
3	main	212	1	1	0.8174703220001902	1	0.8240940610003236	0.8023741930001052	-0.021719868000218412	2.374193000105107	4.771913020001884	17.470322000190166
3	main	213	1	1	0.8175728300002447	1	0.8161077539998587	0.8056999379996341	-0.010407816000224557	5.699937999634086	4.773454300004923	17.57283000024468
3	main	214	1	1	0.7508770869999353	1	0.7680920480006534	0.7493450480005777	-0.018747000000075786	50.65495199942238	3.773036665009167	49.12291300006477
3	main	215	1	1	0.8169816210001954	1	0.832055195999601	0.8145228430003044	-0.017532352999296563	14.522843000304375	4.764594999999426	16.981621000195403
3	main	216	0	0	NaN	0.5750000000000001	0.832055195999601	0.8145228430003044	-0.017532352999296563	14.522843000304375	1.1350000000000016	16.981621000195403
3	main	217	1	1	0.8338909799995236	1	0.8321342070003084	0.8232252699999663	-0.008908937000342121	23.225269999966216	5.018213830005843	33.89097999952351
3	main	218	1	1	0.849772720999681	1	0.8640400770000269	0.846738496999933	-0.017301580000093963	46.738496999932934	5.256509170005993	49.772720999681
3	main	219	1	1	0.8167269850000594	1	0.8241013289998591	0.8134363300005134	-0.010664998999345698	13.436330000513363	4.760821869997708	16.726985000059315
3	main	220	1	1	0.8332545829998708	1	0.8480045779997454	0.8299163149995366	-0.018088263000208826	29.91631499953651	5.0087234349964636	33.25458299987072
3	main	221	0	0	NaN	0.6000000000000001	0.8480045779997454	0.8299163149995366	-0.018088263000208826	29.91631499953651	1.5100000000000016	33.25458299987072
3	main	222	1	1	0.866496632000235	1	0.8799907239999811	0.8530579790003685	-0.026932744999612623	53.05797900036846	5.507314690010171	66.49663200023492
3	main	223	1	1	0.8503787250001551	1	0.847991808000188	0.8373029240001415	-0.010688884000046528	37.30292400014146	5.265544720002945	50.37872500015506
3	main	224	1	1	0.8340161399992212	1	0.8481212529995901	0.8327379619995554	-0.01538329100003466	32.73796199955537	5.020072389995912	34.01613999922115
3	main	225	0	1	0.8335194660003253	0.625	0.8479888990004838	0.8261748720005926	-0.021814026999891212	32.73796199955537	1.8849999999999998	34.01613999922115
3	main	226	1	1	0.8339029130002018	1	0.8320169649996387	0.8193505869994624	-0.012666378000176337	19.35058699946235	5.018326059992214	33.902913000201764
3	main	227	1	1	0.8004214180000417	1	0.808006516000205	0.7849626810002519	-0.023043834999953106	15.03731899974814	4.5161171200040915	0.4214180000416956
3	main	228	1	1	0.8843978180002523	1	0.8959910390003643	0.8721887570000035	-0.02380228200036072	72.18875700000349	5.775772734994243	84.39781800025226
3	main	229	1	1	0.7835485840005276	1	0.79199349099963	0.7797126830000707	-0.012280807999559329	20.28731699992936	4.263129654998702	16.451415999472417
3	main	230	1	1	0.7501426580001862	1	0.760109972000464	0.7470497210006215	-0.013060250999842538	52.95027899937854	3.7620578950034176	49.85734199981384
3	main	231	1	1	0.8169601780000448	1	0.8241169769999033	0.8077597720002814	-0.0163572049996219	7.759772000281329	4.764259120004462	16.96017800004479
3	main	232	0	1	0.749861735000195	0.6000000000000001	0.7680431170001611	0.7475232409997261	-0.020519876000435033	7.759772000281329	1.5100000000000016	16.96017800004479
3	main	233	1	1	0.8335949880001863	1	0.8319933819993821	0.8203246240000226	-0.011668757999359514	20.324624000022553	5.013789024999605	33.594988000186234
3	main	234	1	1	0.8667780160003531	1	0.8801299060005476	0.8556545090004875	-0.024475397000060184	55.65450900048741	5.511517974998933	66.77801600035305
3	main	235	1	1	0.8334029489997192	1	0.8401080699995873	0.8273594909996973	-0.012748578999890015	27.359490999697258	5.010961614996413	33.402948999719186
3	main	236	1	1	0.8008648559998619	1	0.7999960520000968	0.7865537520001453	-0.013442299999951501	13.446247999854721	4.522824789994738	0.8648559998618577
3	main	237	1	1	0.7669297599995843	1	0.7760266630002661	0.7645386439999129	-0.011488019000353233	35.46135600008715	4.013849769992484	33.070240000415694
3	main	238	1	1	0.817094809000082	1	0.8240998310002396	0.8048487050000404	-0.019251126000199292	4.84870500004031	4.766314959995507	17.09480900008198
3	main	239	0	0	NaN	0.5750000000000001	0.8240998310002396	0.8048487050000404	-0.019251126000199292	4.84870500004031	1.1350000000000016	17.09480900008198
3	main	240	0	1	0.8158893399995577	0.6000000000000001	0.832101046000389	0.8107040730001245	-0.021396973000264552	4.84870500004031	1.5100000000000016	17.09480900008198
3	main	241	1	1	0.8496150609998949	1	0.8561209809995489	0.842444224999781	-0.01367675599976792	42.44422499978096	5.2541325850031715	49.61506099989488
3	main	242	1	1	0.8504080540005816	1	0.8561003109998637	0.8392070469999453	-0.016893263999918418	39.20704699994526	5.265979030007438	50.40805400058157
3	main	243	0	0	NaN	0.5750000000000001	0.8561003109998637	0.8392070469999453	-0.016893263999918418	39.20704699994526	1.1350000000000016	50.40805400058157
3	main	244	0	0	NaN	0.6000000000000001	0.8561003109998637	0.8392070469999453	-0.016893263999918418	39.20704699994526	1.5100000000000016	50.40805400058157
3	main	245	0	1	0.8336506860005102	0.625	0.8480405390000669	0.8302074550001635	-0.017833083999903465	39.20704699994526	1.8849999999999998	50.40805400058157
3	main	246	1	1	0.8173920819999694	1	0.8241445300000123	0.8164594809995833	-0.0076850490004289895	16.459480999583278	4.770755920001429	17.392081999969335
3	main	247	0	0	NaN	0.6000000000000001	0.8241445300000123	0.8164594809995833	-0.0076850490004289895	16.459480999583278	1.5100000000000016	17.392081999969335
3	main	248	1	1	0.8663690559997121	1	0.8799838020004245	0.8587465330001578	-0.02123726900026668	58.746533000157754	5.505325749993753	66.3690559997121
3	main	249	1	1	0.833934883999973	1	0.8480868060005378	0.8328387990004558	-0.015248007000081998	32.83879900045572	5.018935420000853	33.93488399997291
3	main	250	0	1	0.8336262799994074	0.625	0.8401069150004332	0.821856913999909	-0.018250001000524207	32.83879900045572	1.8849999999999998	33.93488399997291
3	main	251	1	1	0.8846787319998839	1	0.8960189640001772	0.8709789160002401	-0.025040047999937087	70.97891600024009	5.780007069995699	84.67873199988385
3	main	252	1	1	0.8653404090000549	1	0.8720426099998804	0.8546652029999677	-0.017377406999912637	54.66520299996769	5.489959839999537	65.34040900005489
3	main	253	1	1	0.8163353460004146	1	0.8320254310001474	0.8063219510004274	-0.025703479999720003	6.321951000427317	4.754933305000813	16.335346000414532
3	main	254	1	1	0.8002223379999123	1	0.8160219259998485	0.7980212399997981	-0.018000686000050337	1.978760000201918	4.513185415005646	0.22233799991222547
3	main	255	1	1	0.8173019539999586	1	0.8321132849996502	0.8158529049997014	-0.016260379999948782	15.852904999701378	4.769373414990477	17.3019539999586
3	main	256	1	1	0.7831066019998616	1	0.7920319129998461	0.7692575579994809	-0.022774355000365176	30.74244200051912	4.25651030500172	16.893398000138447
3	main	257	1	1	0.8501851259998148	1	0.8641011190002246	0.840043856000193	-0.024057263000031526	40.043856000193	5.262688765008315	50.18512599981473
3	main	258	1	1	0.833576551999613	1	0.8560134690005725	0.8298114350000105	-0.02620203400056198	29.81143500001049	5.013520089999256	33.57655199961296
3	main	259	1	1	0.833571443999972	1	0.8400423789998968	0.828223615000752	-0.011818763999144721	28.22361500075199	5.0134712050046435	33.57144399997192
3	main	260	0	1	0.817618412000229	0.6000000000000001	0.8161016269996253	0.8036312579997684	-0.012470368999856873	28.22361500075199	1.5100000000000016	33.57144399997192
3	main	261	1	1	0.8338915740005177	1	0.8561278540000785	0.8332863230007206	-0.02284153099935793	33.28632300072054	5.018272165009657	33.89157400051768
3	main	262	1	1	0.8007802900001479	1	0.8160933009994551	0.7996026509999865	-0.016490649999468587	0.397349000013536	4.521599335000937	0.7802900001478985
3	main	263	1	1	0.8336651449999408	1	0.8480337329992835	0.8301971809996758	-0.017836551999607764	30.197180999675723	5.014831870000998	33.66514499994078
3	main	264	1	1	0.866284720999829	1	0.880103063000206	0.8603255549996902	-0.01977750800051581	60.32555499969017	5.504180754994886	66.28472099982896
3	main	265	0	0	NaN	0.5750000000000001	0.880103063000206	0.8603255549996902	-0.01977750800051581	60.32555499969017	1.1350000000000016	66.28472099982896
3	main	266	1	1	0.7989788800005044	1	0.8161064920004719	0.7867902400003004	-0.029316252000171517	13.209759999699644	4.494544330002791	1.0211199994956122
3	main	267	1	1	0.8169058319999749	1	0.8240972800003874	0.8066496820001703	-0.017447598000217113	6.649682000170243	4.763484339998977	16.905831999974865
3	main	268	1	1	0.8170200740005384	1	0.8320063699993625	0.8049053400000048	-0.027101029999357706	4.905340000004754	4.765194370004574	17.0200740005384
3	main	269	1	1	0.9166301599998405	1	0.9361024789996009	0.9119424549999167	-0.0241600239996842	111.94245499991662	6.25935203500172	116.6301599998405
3	main	270	1	1	0.8003450850001173	1	0.8080137670003751	0.7946864670002469	-0.013327300000128162	5.313532999753123	4.515002005003007	0.3450850001172068
3	main	271	0	1	0.8339045630000328	0.6000000000000001	0.8400641480002378	0.8327349569999569	-0.007329191000280844	5.313532999753123	1.5100000000000016	0.3450850001172068
3	main	272	1	1	0.834256911999546	1	0.8400140319999991	0.8182060319995799	-0.02180800000041927	18.20603199957982	5.023710579992221	34.25691199954595
3	main	273	1	1	0.8177742450006917	1	0.8240088379998269	0.8122337880004125	-0.011775049999414477	12.233788000412416	4.776451795003377	17.774245000691693
3	main	274	1	1	0.7468353390004268	1	0.7600414270000329	0.7440865950002262	-0.01595483199980663	55.91340499977382	3.7124455450000458	53.164660999573286
3	main	275	0	0	NaN	0.5750000000000001	0.7600414270000329	0.7440865950002262	-0.01595483199980663	55.91340499977382	1.1350000000000016	53.164660999573286
3	main	276	1	1	0.7999927680002656	1	0.8080388770003992	0.7969365210001342	-0.01110235600026499	3.0634789998658096	4.509808720006513	0.007231999734402805
3	main	277	1	1	0.9002835469991624	1	0.9040389689998847	0.8910294179995617	-0.013009551000322972	91.02941799956166	6.014158404994086	100.28354699916231
3	main	278	1	1	0.8002742530006799	1	0.8000203490000786	0.7888459430005241	-0.011174405999554438	11.154056999475914	4.5139818250006645	0.27425300067984715
3	main	279	1	1	0.7506670069997199	1	0.7600660489997608	0.7492937859997255	-0.01077226300003531	50.70621400027453	3.769853004994511	49.332993000280155
3	main	280	1	1	0.8509305990000939	1	0.8481324770000356	0.8408473310000772	-0.007285145999958331	40.847331000077205	5.2738016650007555	50.93059900009389
3	main	281	0	1	0.7174021130003894	0.6000000000000001	0.7360416909996275	0.714842944999873	-0.021198745999754465	40.847331000077205	1.5100000000000016	50.93059900009389
3	main	282	0	1	0.8168737320002037	0.5750000000000001	0.82410569700005	0.8095780170006037	-0.014527679999446264	40.847331000077205	1.1350000000000016	50.93059900009389
3	main	283	1	1	0.7500078159991972	1	0.767977262000386	0.746129283999835	-0.02184797800055094	53.87071600016502	3.7599768849920654	49.99218400080285
3	main	284	1	1	0.8169305579995125	1	0.8160748059999605	0.8041991909994977	-0.011875615000462858	4.199190999497615	4.763817219998382	16.930557999512487
3	main	285	1	1	0.8168242359997748	1	0.8159900780001408	0.8027228459995968	-0.013267232000544027	2.7228459995967125	4.762238889991531	16.824235999774785
3	main	286	0	0	NaN	0.55	0.8159900780001408	0.8027228459995968	-0.013267232000544027	2.7228459995967125	0.7599999999999998	16.824235999774785
3	main	287	1	1	0.8151795909998327	1	0.8319929300005242	0.8147813900004621	-0.017211540000062087	14.78139000046208	4.737531250005086	15.179590999832682
3	main	288	1	1	0.8007460329999958	1	0.8080952290001733	0.7997251480001069	-0.00837008100006642	0.27485199989318865	4.521048624999603	0.7460329999957604
3	main	289	1	1	0.8496581270001116	1	0.8640952530004142	0.8370080969998526	-0.027087156000561663	37.008096999852526	5.254757890000073	49.65812700011152
3	main	290	1	1	0.866873127000872	1	0.8800920730000144	0.8657181300004595	-0.014373942999554856	65.71813000045945	5.512985965013067	66.873127000872
3	main	291	0	1	0.8168322649999027	0.5750000000000001	0.8160239359995103	0.8012646569995923	-0.014759278999918024	65.71813000045945	1.1350000000000016	66.873127000872
3	main	292	1	1	0.8172108049993767	1	0.8239936059999309	0.8045225249998111	-0.01947108100011974	4.522524999811095	4.768012000002054	17.210804999376663
3	main	293	0	0	NaN	0.55	0.8239936059999309	0.8045225249998111	-0.01947108100011974	4.522524999811095	0.7599999999999998	17.210804999376663
3	main	294	1	1	0.7841472950003663	1	0.7920408410000164	0.7821080480007367	-0.009932792999279627	17.8919519992633	4.272054010005158	15.85270499963376
3	main	295	1	1	0.8336081309998917	1	0.8481164790000548	0.8302251719997003	-0.017891307000354573	30.22517199970021	5.014035834995193	33.608130999891685
3	main	296	1	1	0.8004913780005154	1	0.8160567420000007	0.7991796639998938	-0.01687707800010685	0.8203360001062254	4.517223700006761	0.4913780005153523
3	main	297	1	1	0.8337014759999875	1	0.8400996399996075	0.8326641109997581	-0.007435528999849339	32.66411099975808	5.015412340001385	33.70147599998741
3	main	298	1	1	0.8175243420000697	1	0.8161297769993325	0.804495778999808	-0.011633997999524581	4.495778999807909	4.772718924998808	17.524342000069694
3	main	299	1	1	0.8172093679995669	1	0.8240753660002156	0.8038760689996707	-0.020199297000544902	3.8760689996706343	4.768051014991906	17.20936799956685
3	main	300	0	1	0.817426845999762	0.5750000000000001	0.8240243589998499	0.8125171259998751	-0.011507232999974804	3.8760689996706343	1.1350000000000016	17.20936799956685
4	main	301	1	1	0.0505067340000096	1	0.07201970599999186	0.043467385999974795	-0.028552320000017062	756.5326140000252	-6.732571849999877	749.4932659999904
4	main	302	0	0	NaN	0.55	0.07201970599999186	0.043467385999974795	-0.028552320000017062	756.5326140000252	0.7599999999999998	749.4932659999904
4	main	303	0	1	0.8170125850001568	0.5750000000000001	0.8399881619998268	0.811129957999583	-0.02885820400024386	756.5326140000252	1.1350000000000016	749.4932659999904
4	main	304	1	1	0.8332173380003951	1	0.8319922339996992	0.8204172209998433	-0.011575012999855971	20.417220999843224	5.008169185005281	33.21733800039506
4	main	305	1	1	0.8330816609995964	1	0.8480097910005497	0.8266975930000626	-0.021312198000487115	26.697593000062582	5.0061102550059875	33.08166099959631
4	main	306	1	1	0.8339457970005242	1	0.8560368890002792	0.83136044100047	-0.02467644799980917	31.360441000469976	5.01909546999992	33.94579700052414
4	main	307	0	0	NaN	0.55	0.8560368890002792	0.83136044100047	-0.02467644799980917	31.360441000469976	0.7599999999999998	33.94579700052414
4	main	308	0	0	NaN	0.5750000000000001	0.8560368890002792	0.83136044100047	-0.02467644799980917	31.360441000469976	1.1350000000000016	33.94579700052414
4	main	309	1	1	0.8498938510001608	1	0.864019560000088	0.839655089000189	-0.024364470999898913	39.655089000188994	5.258317884997959	49.89385100016075
4	main	310	1	1	0.816223830999661	1	0.8240346530001261	0.805595791000087	-0.01843886200003908	5.595791000087003	4.7532029350056835	16.22383099966096
4	main	311	1	1	0.8004856269999436	1	0.8241249399998196	0.7991318750000573	-0.024993064999762282	0.8681249999427099	4.5171239049912035	0.48562699994358915
4	main	312	1	1	0.833990322000318	1	0.8401222550000966	0.8325955310001518	-0.0075267239999448066	32.59553100015178	5.019735565004121	33.99032200031793
4	main	313	1	1	0.7829038680001759	1	0.8000457039997855	0.7800338449997071	-0.020011859000078402	19.96615500029297	4.2534771849912065	17.09613199982418
4	main	314	1	1	0.816110062000007	1	0.8241106650002621	0.8072384200004308	-0.01687224499983131	7.238420000430734	4.751565939998509	16.110062000006977
4	main	315	1	1	0.8335857500005659	1	0.8400101179995545	0.8199392090000401	-0.02007090899951436	19.939209000040094	5.0136493300103755	33.58575000056585
4	main	316	0	0	NaN	0.6000000000000001	0.8400101179995545	0.8199392090000401	-0.02007090899951436	19.939209000040094	1.5100000000000016	33.58575000056585
4	main	317	1	1	0.8502063019996058	1	0.8641924240000662	0.8493706449999081	-0.01482177900015813	49.370644999908066	5.262984234994073	50.20630199960574
4	main	318	1	1	0.8000277620003544	1	0.8160889350001526	0.797948742000699	-0.018140192999453575	2.0512579993010593	4.510266205004664	0.02776200035436993
4	main	319	1	1	0.7510683349992178	1	0.7761727729994163	0.7503084169993599	-0.025864356000056432	49.691583000640136	3.775913844990791	48.931665000782274
4	main	320	1	1	0.8336012919999121	1	0.8399819070000376	0.8228270070003418	-0.017154899999695772	22.827007000341794	5.013913900009138	33.60129199991202
4	main	321	0	1	0.8845844499992381	0.625	0.904009054999733	0.8771996919995217	-0.026809363000211306	22.827007000341794	1.8849999999999998	33.60129199991202
4	main	322	1	1	0.8499680650002119	1	0.8480244410002342	0.83492783300062	-0.013096607999614207	34.92783300061997	5.2594111599980895	49.968065000211894
4	main	323	1	1	0.8335040849997313	1	0.8400273759998527	0.8172469499995714	-0.022780426000281295	17.246949999571328	5.012424069994049	33.50408499973123
4	main	324	1	1	0.7344457250001142	1	0.7360025149991998	0.7270824229999562	-0.008920091999243596	72.91757700004386	3.5265360550035982	65.55427499988586
4	main	325	0	1	0.8001153400000476	0.6000000000000001	0.8080462789994272	0.7850418859998172	-0.02300439299960999	72.91757700004386	1.5100000000000016	65.55427499988586
4	main	326	1	1	0.7837815339998997	1	0.7920204840002043	0.7792547069993816	-0.012765777000822709	20.745293000618446	4.266633699988015	16.21846600010035
4	main	327	1	1	0.8670392260000881	1	0.8639918449998731	0.8538726040005713	-0.010119240999301837	53.87260400057126	5.515448260009871	67.03922600008805
4	main	328	1	1	0.8003638630007117	1	0.8160087919995931	0.7980194960000517	-0.017989295999541355	1.9805039999483132	4.515313975005265	0.36386300071167277
4	main	329	1	1	0.8339124659996742	1	0.8561009820004983	0.8316783740001483	-0.02442260800035001	31.67837400014828	5.018549290005248	33.912465999674126
4	main	330	1	1	0.8672853719999694	1	0.872023162000005	0.864124959000037	-0.007898202999967907	64.12495900003701	5.519198289996675	67.28537199996931
4	main	331	1	1	0.7672410550003406	1	0.7841405289991599	0.7573003249999601	-0.02684020399919973	42.6996750000399	4.018465795009215	32.75894499965948
4	main	332	0	0	NaN	0.5750000000000001	0.7841405289991599	0.7573003249999601	-0.02684020399919973	42.6996750000399	1.1350000000000016	32.75894499965948
4	main	333	1	1	0.8167026549999719	1	0.8240350730002319	0.8064356750001025	-0.01759939800012944	6.435675000102448	4.760459395004327	16.702654999971813
4	main	334	1	1	0.8339828529997249	1	0.8320828850000908	0.819669000000431	-0.012413884999659786	19.669000000430927	5.019604824995222	33.98285299972481
4	main	335	1	1	0.8843125189996499	1	0.8879983369997717	0.8678912269997454	-0.020107110000026296	67.89122699974537	5.774542824999807	84.31251899964987
4	main	336	1	1	0.800482815999203	1	0.8240779589996237	0.7999983399995472	-0.02407961900007649	0.0016600004528743995	4.517076264990246	0.4828159992029679
4	main	337	1	1	0.866560059999756	1	0.8880011620003643	0.8627285630000188	-0.025272599000345508	62.728563000018724	5.508304329994425	66.560059999756
4	main	338	1	1	0.8169185220003783	1	0.8160240839997641	0.803193292999822	-0.01283079099994211	3.1932929998219617	4.763637789999629	16.918522000378246
4	main	339	0	0	NaN	0.6000000000000001	0.8160240839997641	0.803193292999822	-0.01283079099994211	3.1932929998219617	1.5100000000000016	16.918522000378246
4	main	340	0	0	NaN	0.625	0.8160240839997641	0.803193292999822	-0.01283079099994211	3.1932929998219617	1.8849999999999998	16.918522000378246
4	main	341	1	1	0.8668527529998755	1	0.8801145780007573	0.8622279380006148	-0.017886640000142506	62.22793800061477	5.512707460004785	66.85275299987548
4	main	342	1	1	0.8169850780004708	1	0.824024943999575	0.8115356369999063	-0.01248930699966877	11.53563699990623	4.764689860005783	16.98507800047078
4	main	343	0	1	0.8335254040002837	0.65	0.8559836439999344	0.8268296160003956	-0.029154027999538812	11.53563699990623	2.26	16.98507800047078
4	main	344	0	1	0.833345785000347	0.625	0.8399965700000394	0.8192301970002518	-0.020766372999787563	11.53563699990623	1.8849999999999998	16.98507800047078
4	main	345	0	1	0.8508865810008501	0.6000000000000001	0.8560121890004666	0.8406049700006406	-0.015407218999826	11.53563699990623	1.5100000000000016	16.98507800047078
4	main	346	1	1	0.9163898150000023	1	0.9281060690000231	0.909976586999619	-0.018129482000404096	109.97658699961899	6.255763780002562	116.38981500000223
4	main	347	0	0	NaN	0.5750000000000001	0.9281060690000231	0.909976586999619	-0.018129482000404096	109.97658699961899	1.1350000000000016	116.38981500000223
4	main	348	1	1	0.8839255160000903	1	0.8880132409994985	0.8684847449994777	-0.019528496000020823	68.48474499947766	5.768798890001344	83.92551600009024
4	main	349	1	1	0.8169298849998086	1	0.8320791750002172	0.8066349480004646	-0.025444226999752573	6.634948000464602	4.763807724996477	16.92988499980852
4	main	350	0	1	0.8006000790001053	0.6000000000000001	0.8000025870005629	0.7835994200004279	-0.016403167000135	6.634948000464602	1.5100000000000016	16.92988499980852
4	main	351	1	1	0.8504305850001401	1	0.8560460099997727	0.8420174000002589	-0.01402860999951372	42.01740000025889	5.2663416100065295	50.430585000140084
4	main	352	1	1	0.8501517279992186	1	0.8560061300004236	0.8418617409997751	-0.014144389000648516	41.86174099977502	5.262184299988585	50.15172799921852
4	main	353	1	1	0.8835221710005499	1	0.9040145870003471	0.8803396760004034	-0.023674910999943677	80.33967600040337	5.762627679999023	83.52217100054982
4	main	354	1	1	0.816939688000275	1	0.8320138510007382	0.8079524700006004	-0.02406138100013777	7.952470000600398	4.763935690000617	16.939688000275012
4	main	355	1	1	0.7666096269995251	1	0.7759981509998397	0.7581136119997609	-0.017884539000078803	41.88638800023914	4.009044534998575	33.39037300047498
4	main	356	1	1	0.7496685850001086	1	0.7601028010003574	0.7439020210003946	-0.016200779999962833	56.097978999605445	3.7549414749971763	50.331414999891464
4	main	357	1	1	0.816870421999738	1	0.8319966779999959	0.8116394639991995	-0.020357214000796375	11.639463999199462	4.762967094991618	16.870421999737985
4	main	358	1	1	0.866943490000267	1	0.864034330999857	0.8515517850000833	-0.01248254599977372	51.551785000083285	5.514059484997015	66.943490000267
4	main	359	1	1	0.849855980999564	1	0.8640422939997734	0.8379867939993346	-0.02605550000043877	37.98679399933458	5.25770559999979	49.85598099956401
4	main	360	0	1	0.8004306290004024	0.5750000000000001	0.8080100240003958	0.7870359080006892	-0.020974115999706555	37.98679399933458	1.1350000000000016	49.85598099956401
4	main	361	1	1	0.7837750039998355	1	0.8000918870002351	0.7816156130002128	-0.018476274000022386	18.38438699978728	4.266527215002279	16.22499600016458
4	main	362	1	1	0.8333559830007289	1	0.832029410999894	0.8239577170006669	-0.008071693999227136	23.957717000666847	5.0102436850036245	33.35598300072884
4	main	363	1	1	0.8503858799995214	1	0.8559792980004204	0.8388492949998181	-0.0171300030006023	38.84929499981804	5.265659724994075	50.38587999952138
4	main	364	1	1	0.8161353880004754	1	0.8319981000004191	0.8092372220007746	-0.022760877999644435	9.237222000774592	4.751926525011877	16.135388000475317
4	main	365	0	0	NaN	0.55	0.8319981000004191	0.8092372220007746	-0.022760877999644435	9.237222000774592	0.7599999999999998	16.135388000475317
4	main	366	1	1	0.8168265230006	1	0.8319912720007778	0.8128730180005732	-0.019118254000204615	12.873018000573166	4.762291690006132	16.82652300059995
4	main	367	1	1	0.8675367050000204	1	0.8800856280004155	0.8670915410002635	-0.012994087000151922	67.09154100026349	5.522938390006638	67.5367050000204
4	main	368	1	1	0.833860220999668	1	0.8481777699998929	0.8332413520001865	-0.014936417999706464	33.24135200018641	5.017763680005155	33.8602209996679
4	main	369	1	1	0.8170428089997586	1	0.8320080720004626	0.8051067590004095	-0.02690131300005305	5.1067590004094665	4.765513975001122	17.04280899975852
4	main	370	1	1	0.8333129820002796	1	0.8476618310005506	0.824215209000613	-0.023446621999937634	24.215209000612916	5.009606289998155	33.31298200027955
4	main	371	0	0	NaN	0.5750000000000001	0.8476618310005506	0.824215209000613	-0.023446621999937634	24.215209000612916	1.1350000000000016	33.31298200027955
4	main	372	1	1	0.816837028000009	1	0.8321071489999667	0.8127919779999502	-0.019315171000016562	12.791977999950133	4.762467879998221	16.83702800000897
4	main	373	1	1	0.8501943700002812	1	0.8479979710000407	0.8372729230004552	-0.010725047999585513	37.27292300045515	5.262790240006106	50.194370000281154
4	main	374	1	1	0.8672472280004513	1	0.8720190459998776	0.852576178000163	-0.019442867999714508	52.57617800016301	5.518568230002311	67.24722800045124
4	main	375	0	0	NaN	0.6000000000000001	0.8720190459998776	0.852576178000163	-0.019442867999714508	52.57617800016301	1.5100000000000016	67.24722800045124
4	main	376	1	1	0.7996034399993732	1	0.8081082870003229	0.7886001970000507	-0.019508090000272205	11.39980299994936	4.5038384050010425	0.3965600006268222
4	main	377	1	1	0.8501574120000441	1	0.8560332389997711	0.8384259829999792	-0.01760725599979196	38.42598299997913	5.262232045008895	50.15741200004409
4	main	378	1	1	0.8145696040000985	1	0.8240047839999534	0.8033943639993595	-0.020610420000593876	3.39436399935944	4.7284561449967075	14.569604000098435
4	main	379	1	1	0.8001039729997501	1	0.7999942839996947	0.7850618519996715	-0.014932432000023255	14.938148000328555	4.511397010003529	0.10397299975006824
4	main	380	1	1	0.8663823790002425	1	0.8720046520002143	0.8583916440002213	-0.013613007999992988	58.391644000221234	5.505649315002993	66.38237900024247
4	main	381	0	1	0.8169590420002351	0.625	0.8321135050000521	0.8057968390003225	-0.026316665999729594	58.391644000221234	1.8849999999999998	66.38237900024247
4	main	382	0	1	0.783666323000034	0.6000000000000001	0.7840218040000764	0.7747824550006044	-0.009239348999471986	58.391644000221234	1.5100000000000016	66.38237900024247
4	main	383	1	1	0.8838752880001266	1	0.8960838719995081	0.8818466839993562	-0.014237188000151946	81.84668399935613	5.767986384992364	83.87528800012656
4	main	384	1	1	0.7820633519995681	1	0.8001372449998598	0.7718807199998992	-0.028256524999960675	28.119280000100886	4.240812999999216	17.93664800043193
4	main	385	1	1	0.8173583749994577	1	0.8160318069994901	0.8057788589994743	-0.010252948000015749	5.778858999474279	4.7702628249978805	17.358374999457695
4	main	386	0	0	NaN	0.5750000000000001	0.8160318069994901	0.8057788589994743	-0.010252948000015749	5.778858999474279	1.1350000000000016	17.358374999457695
4	main	387	1	1	0.8168772159997388	1	0.8160106309996991	0.8075223229998301	-0.008488307999868994	7.522322999830022	4.763019730001142	16.877215999738794
4	main	388	1	1	0.8003660719996333	1	0.807999552000183	0.7844418699996822	-0.02355768200050079	15.558130000317805	4.51539402999766	0.3660719996332329
4	main	389	1	1	0.8160293789997013	1	0.815997728000184	0.8001449249995858	-0.015852803000598215	0.14492499958573823	4.750338204987893	16.02937899970125
4	main	390	1	1	0.7997880590000932	1	0.808016594000037	0.788348772000063	-0.019667821999973967	11.651227999937008	4.506705669998846	0.21194099990684556
4	main	391	0	1	0.8002749669994955	0.6000000000000001	0.8160000959996978	0.7980731819998255	-0.01792691399987234	11.651227999937008	1.5100000000000016	0.21194099990684556
4	main	392	1	1	0.8162338369993449	1	0.8401159730001382	0.8130388629997469	-0.027077110000391258	13.03886299974688	4.75342484499175	16.233836999344888
4	main	393	0	1	0.8504033839999465	0.5750000000000001	0.864006523000171	0.8413338629998179	-0.022672660000353062	13.03886299974688	1.1350000000000016	16.233836999344888
4	main	394	1	1	0.8169488419998743	1	0.8161076090000279	0.8081662229997164	-0.007941386000311468	8.166222999716366	4.764146545001276	16.948841999874233
4	main	395	1	1	0.8503139149997878	1	0.8639920859995982	0.8456363369996325	-0.018355748999965726	45.636336999632434	5.264570844995214	50.31391499978777
4	main	396	1	1	0.7830343549994723	1	0.799975687999904	0.7792913759994917	-0.02068431200041232	20.708624000508323	4.255419460003177	16.965645000527772
4	main	397	1	1	0.8502582549999715	1	0.8561055589998432	0.845274229000097	-0.010831329999746231	45.27422900009692	5.263758940007174	50.2582549999715
4	main	398	1	1	0.7837787700000263	1	0.7999993319999703	0.7814748020000479	-0.01852452999992238	18.525197999952113	4.266507069990221	16.221229999973772
4	main	399	1	1	0.816554922999785	1	0.8240126239998062	0.8082879220000905	-0.015724701999715762	8.28792200009043	4.7581662400059574	16.554922999785006
4	main	400	0	0	NaN	0.55	0.8240126239998062	0.8082879220000905	-0.015724701999715762	8.28792200009043	0.7599999999999998	16.554922999785006
