Block	TrialType	Trial	Signal	Response	RT	SSD	keyDuration	keyDuration_startSyched	keyRT	feedback_ms	vert	feedback_synched
1	practice	1	1	1	0.8338507680018665	1	0.8480365760005952	0.8195755400010967	-0.028461035999498563	19.575540001096627	5.017582899979752	33.850768001866484
1	practice	2	1	1	0.8499787730033859	1	0.8681652479972399	0.8487389740002982	-0.019426273996941745	48.73897400029814	5.259495445041248	49.978773003385825
1	practice	3	1	1	0.8673750390007626	1	0.8882122260001779	0.8620366190007189	-0.026175606999458978	62.036619000718886	5.520406885005068	67.37503900076258
1	practice	4	1	1	0.9173961999986204	1	0.9200638469992555	0.9019362759972864	-0.018127571001969045	101.93627599728639	6.270755004968814	117.39619999862039
1	practice	5	1	1	0.09227932900103042	1	0.11609010100073647	0.08618206699975417	-0.029908034000982298	713.8179330002458	-6.105978514990275	707.7206709989696
1	practice	6	0	0	NaN	0.5	0.11609010100073647	0.08618206699975417	-0.029908034000982298	713.8179330002458	0.009999999999999787	707.7206709989696
1	practice	7	0	0	NaN	0.5250000000000001	0.11609010100073647	0.08618206699975417	-0.029908034000982298	713.8179330002458	0.38500000000000156	707.7206709989696
1	practice	8	0	0	NaN	0.55	0.11609010100073647	0.08618206699975417	-0.029908034000982298	713.8179330002458	0.7599999999999998	707.7206709989696
1	main	1	1	1	0.8498792780010263	1	0.8641356490006729	0.8401591990004817	-0.023976450000191107	40.159199000481706	5.25799022499792	49.87927800102621
1	main	2	1	1	0.5337127249986224	1	0.5320657789998222	0.5169188330000907	-0.015146945999731543	283.0811669999094	0.5154632199789919	266.2872750013776
1	main	3	1	1	0.8169927029994142	1	0.8161575939993782	0.801995188001456	-0.014162405997922178	1.9951880014559276	4.764711685000075	16.992702999414135
1	main	4	0	0	NaN	0.5250000000000001	0.8161575939993782	0.801995188001456	-0.014162405997922178	1.9951880014559276	0.38500000000000156	16.992702999414135
1	main	5	1	1	0.8347348419993068	1	0.8422516540013021	0.8241048830022919	-0.018146770999010187	24.104883002291857	5.030792995037482	34.73484199930677
1	main	6	0	0	NaN	0.55	0.8422516540013021	0.8241048830022919	-0.018146770999010187	24.104883002291857	0.7599999999999998	34.73484199930677
1	main	7	0	0	NaN	0.5750000000000001	0.8422516540013021	0.8241048830022919	-0.018146770999010187	24.104883002291857	1.1350000000000016	34.73484199930677
1	main	8	1	1	0.8677004029996169	1	0.8800244189988007	0.8625596669990045	-0.017464751999796135	62.559666999004506	5.525330454982177	67.70040299961688
1	main	9	0	0	NaN	0.6000000000000001	0.8800244189988007	0.8625596669990045	-0.017464751999796135	62.559666999004506	1.5100000000000016	67.70040299961688
1	main	10	0	0	NaN	0.625	0.8800244189988007	0.8625596669990045	-0.017464751999796135	62.559666999004506	1.8849999999999998	67.70040299961688
1	main	11	0	0	NaN	0.65	0.8800244189988007	0.8625596669990045	-0.017464751999796135	62.559666999004506	2.26	67.70040299961688
1	main	12	1	1	0.8514670750009827	1	0.8561297580017708	0.8421971800016763	-0.013932578000094509	42.19718000167627	5.281777944999485	51.46707500098269
1	main	13	1	1	0.8679827730011311	1	0.8679538600008527	0.8531522900011623	-0.0148015699996904	53.152290001162285	5.529564445021387	67.9827730011311
1	main	14	1	1	0.816801809000026	1	0.8197071760005201	0.8093311500015261	-0.01037602599899401	9.331150001526067	4.761834984999732	16.801809000025926
1	main	15	1	1	0.8338557269999001	1	0.8320243429989205	0.8212795500003267	-0.010744792998593766	21.279550000326665	5.017651359992451	33.85572699990003
1	main	16	0	1	0.8498410810025234	0.65	0.8640354990020569	0.8456674100016244	-0.01836808900043252	21.279550000326665	2.26	33.85572699990003
1	main	17	0	1	0.8500884700006281	0.625	0.8602199650013063	0.8377702719990339	-0.022449693002272397	21.279550000326665	1.8849999999999998	33.85572699990003
1	main	18	0	0	NaN	0.6000000000000001	0.8602199650013063	0.8377702719990339	-0.022449693002272397	21.279550000326665	1.5100000000000016	33.85572699990003
1	main	19	1	1	0.9840039930022613	1	0.9921189859996957	0.9828608970019559	-0.009258088997739833	182.86089700195583	7.269773950008821	184.0039930022612
1	main	20	1	1	0.867379515999346	1	0.8640448009973625	0.8514354639992234	-0.012609336998139042	51.43546399922339	5.5205528049898565	67.379515999346
1	main	21	1	1	0.7826109519992315	1	0.8000828309995995	0.7754015179998532	-0.024681312999746297	24.598482000146802	4.248950080016366	17.389048000768568
1	main	22	1	1	0.8008477939984004	1	0.8121722129981208	0.7997393859986914	-0.01243282699942938	0.26061400130861223	4.522518114970589	0.8477939984004035
1	main	23	0	1	0.7679099380002299	0.625	0.7841571799981466	0.7666856639989419	-0.017471515999204712	0.26061400130861223	1.8849999999999998	0.8477939984004035
1	main	24	1	1	0.8175050749996444	1	0.8360970330031705	0.8147214590026124	-0.021375574000558117	14.721459002612347	4.77236702499591	17.50507499964438
1	main	25	0	0	NaN	0.6000000000000001	0.8360970330031705	0.8147214590026124	-0.021375574000558117	14.721459002612347	1.5100000000000016	17.50507499964438
1	main	26	1	1	0.8671322730006068	1	0.8720608069997979	0.8641060409972852	-0.00795476600251277	64.10604099728512	5.516773554971005	67.13227300060676
1	main	27	1	1	0.8505853429996932	1	0.852031310001621	0.8436063660010404	-0.008424944000580581	43.6063660010404	5.268592239970312	50.5853429996932
1	main	28	1	1	0.8502448700019158	1	0.860033746001136	0.8448223990017141	-0.015211346999421949	44.82239900171403	5.263481650033791	50.2448700019158
1	main	29	1	1	0.7843555700019351	1	0.8000574460020289	0.77911905700239	-0.020938388999638846	20.880942997610006	4.27520156501283	15.644429998064924
1	main	30	0	1	0.8008163970007445	0.625	0.8120488570020825	0.7911374780014739	-0.020911379000608576	20.880942997610006	1.8849999999999998	15.644429998064924
1	main	31	1	1	0.8171969510003692	1	0.8234018350012775	0.8021989619992382	-0.02120287300203927	2.1989619992381915	4.767745719980448	17.19695100036911
1	main	32	1	1	0.8341608429982443	1	0.8440191800000321	0.8217864329999429	-0.022232747000089148	21.786432999942875	5.022278590020287	34.16084299824429
1	main	33	1	1	0.816879357000289	1	0.8281622670001525	0.8159650939996936	-0.01219717300045886	15.965093999693591	4.763015514997969	16.879357000288977
1	main	34	1	1	0.8345041659995331	1	0.8360350419970928	0.8257191449993115	-0.010315896997781238	25.719144999311496	5.027348140008835	34.5041659995331
1	main	35	1	1	0.8502428650026559	1	0.8480824220023351	0.837271676002274	-0.010810746000061044	37.27167600227399	5.2634478999950804	50.24286500265585
1	main	36	1	1	0.8010436530021252	1	0.8080635690021154	0.7896163300029002	-0.018447238999215188	10.383669997099831	4.525478650046134	1.0436530021251667
1	main	37	1	1	0.8000096729992947	1	0.8205690499999037	0.7925988489987503	-0.027970201001153328	7.401151001249717	4.509926965017948	0.009672999294663143
1	main	38	0	1	0.8337949589986238	0.6000000000000001	0.8400271470018197	0.8222865919997275	-0.01774055500209215	7.401151001249717	1.5100000000000016	0.009672999294663143
1	main	39	1	1	0.8182152590015903	1	0.8236674809995748	0.803529378001258	-0.020138102998316754	3.5293780012579656	4.7830087150193865	18.21525900159027
1	main	40	1	1	0.8663886909998837	1	0.8640829060022952	0.850791611999739	-0.013291294002556242	50.79161199973892	5.505642339974438	66.38869099988365
1	main	41	1	1	0.8171367030008696	1	0.8200753670025733	0.8043347490020096	-0.0157406180005637	4.334749002009586	4.766875135026348	17.13670300086956
1	main	42	1	1	0.7847551380000368	1	0.7840462600033788	0.7676019270002143	-0.016444333003164502	32.3980729997857	4.2811196199707044	15.244861999963222
1	main	43	0	1	0.7850541339976189	0.5750000000000001	0.7920938219976961	0.7705627929972252	-0.02153102900047088	32.3980729997857	1.1350000000000016	15.244861999963222
1	main	44	1	1	0.8163863759982632	1	0.8281827930004511	0.8104815669976233	-0.017701226002827752	10.48156699762326	4.755660294993286	16.386375998263205
1	main	45	1	1	0.8343979540004511	1	0.8360535969986813	0.817906274998677	-0.01814732200000435	17.90627499867692	5.025759235011501	34.397954000451094
1	main	46	1	1	0.8176315029995749	1	0.8253006969971466	0.8132794199991622	-0.012021276997984387	13.279419999162156	4.774293235020886	17.631502999574835
1	main	47	1	1	0.8167825119999179	1	0.8240672259998973	0.8128387479991943	-0.011228478000703035	12.838747999194267	4.761596634996531	16.782511999917872
1	main	48	0	1	0.7832625529990764	0.55	0.7800839129995438	0.7712957430012466	-0.008788169998297235	12.838747999194267	0.7599999999999998	16.782511999917872
1	main	49	1	1	0.8004325549991336	1	0.8001315600013186	0.7845361840008991	-0.015595376000419492	15.46381599910096	4.516275850017118	0.4325549991335276
1	main	50	1	1	0.7676836469981936	1	0.7881450890017732	0.767246614999749	-0.02089847400202416	32.75338500025104	4.025022955009044	32.31635300180646
1	main	51	1	1	0.7845486949991027	1	0.7880677269968146	0.7717259829987597	-0.01634174399805488	28.274017001240324	4.278024475022685	15.451305000897309
1	main	52	1	1	0.784418603998347	1	0.7920604089995322	0.7741387169990048	-0.0179216920005274	25.861283000995215	4.276073679991677	15.581396001653092
1	main	53	0	0	NaN	0.5250000000000001	0.7920604089995322	0.7741387169990048	-0.0179216920005274	25.861283000995215	0.38500000000000156	15.581396001653092
1	main	54	1	1	0.8682691989997693	1	0.8881551909980772	0.8655814710000413	-0.022573719998035813	65.5814710000413	5.533851190027926	68.26919899976924
1	main	55	1	1	0.8332122350002464	1	0.8320756100001745	0.8222087479989568	-0.009866862001217669	22.20874799895678	5.008040979990037	33.212235000246395
1	main	56	0	0	NaN	0.55	0.8320756100001745	0.8222087479989568	-0.009866862001217669	22.20874799895678	0.7599999999999998	33.212235000246395
1	main	57	1	1	0.8347410089991172	1	0.832086469999922	0.8183027849991049	-0.013783685000817059	18.302784999104873	5.030899164992443	34.74100899911714
1	main	58	1	1	0.8165240099988296	1	0.8322552290010208	0.8126692330006335	-0.01958599600038724	12.669233000633495	4.757720260002097	16.524009998829527
1	main	59	1	1	0.8009440040004847	1	0.8120557539987203	0.787985724000464	-0.02407002999825636	12.014275999536084	4.524016149987583	0.9440040004846662
1	main	60	0	1	0.8514935149978555	0.5750000000000001	0.8480352870028582	0.8347401690007246	-0.013295118002133677	12.014275999536084	1.1350000000000016	0.9440040004846662
1	main	61	1	1	0.7514891040009388	1	0.7761075769994932	0.7505996309992042	-0.02550794600028894	49.400369000795806	3.7821433150181836	48.51089599906122
1	main	62	1	1	0.7663933399999223	1	0.7841235489977407	0.7649661840005137	-0.019157364997226978	35.03381599948629	4.005752605023881	33.606660000077724
1	main	63	1	1	0.8186330140015343	1	0.8160804430008284	0.8048530270025367	-0.01122741599829169	4.853027002536647	4.7892768100407554	18.633014001534278
1	main	64	1	1	0.8165045860005193	1	0.8160323689990037	0.8067141659994377	-0.009318202999565983	6.714165999437638	4.757401404983975	16.504586000519296
1	main	65	0	0	NaN	0.55	0.8160323689990037	0.8067141659994377	-0.009318202999565983	6.714165999437638	0.7599999999999998	16.504586000519296
1	main	66	1	1	0.8505919489980442	1	0.8520473790013057	0.8437411829982011	-0.00830619600310456	43.74118299820107	5.2687350549947585	50.5919489980442
1	main	67	1	1	0.8339562979999755	1	0.8521441189986945	0.8312913379995734	-0.020852780999121023	31.2913379995734	5.0191545700161075	33.95629799997546
1	main	68	1	1	0.8337000649989932	1	0.8400487399994745	0.8257232199975988	-0.014325520001875702	25.723219997598747	5.01536376999662	33.70006499899314
1	main	69	0	1	0.8332065529975807	0.5750000000000001	0.8360551830010081	0.824454566998611	-0.011600616002397146	25.723219997598747	1.1350000000000016	33.70006499899314
1	main	70	1	1	0.7661145919992123	1	0.780070410000917	0.7580497580020165	-0.022020651998900576	41.95024199798358	4.00157762500181	33.88540800078776
1	main	71	1	1	0.7502978789998451	1	0.7640301600004022	0.7404578329987999	-0.02357232700160239	59.542167001200184	3.7642739049786176	49.70212100015492
1	main	72	1	1	0.8681764160028251	1	0.8762108970004192	0.8576833260012791	-0.018527570999140153	57.68332600127901	5.532432010002376	68.17641600282509
1	main	73	1	1	0.7662674790008168	1	0.7800347339980362	0.75640004899833	-0.023634684999706224	43.59995100167002	4.003873735016677	33.73252099918322
1	main	74	1	1	0.8004221379997034	1	0.8080778429975908	0.7831053169975348	-0.02497252600005595	16.894683002465214	4.516118124973	0.42213799970336474
1	main	75	1	1	0.7686439830031304	1	0.7922411590006959	0.7677827820007224	-0.024458376999973552	32.21721799927768	4.039387135051365	31.356016996869627
1	main	76	1	1	0.8167382940009702	1	0.8161664379986178	0.8057638550017145	-0.01040258299690322	5.763855001714502	4.760934610019612	16.738294000970157
1	main	77	1	1	0.7675497839991294	1	0.7682424080012424	0.7583478960004868	-0.00989451200075564	41.652103999513244	4.023045685005636	32.45021600087061
1	main	78	1	1	0.7829945789999329	1	0.7880619179995847	0.7751354290012387	-0.01292648899834603	24.86457099876138	4.2547739650015135	17.005421000067187
1	main	79	1	1	0.8010025999974459	1	0.8000532590012881	0.7856881549996615	-0.014365104001626605	14.311845000338552	4.524907839984516	1.0025999974458966
1	main	80	1	1	0.8501065660020686	1	0.8482421840017196	0.8376978750020498	-0.010544308999669738	37.6978750020498	5.261399830031005	50.10656600206853
1	main	81	1	1	0.8347099540005729	1	0.8442405209971184	0.8278687819984043	-0.016371738998714136	27.86878199840426	5.030456244983506	34.709954000572864
1	main	82	1	1	0.8508996099990327	1	0.852061835998029	0.8354146799974842	-0.016647156000544783	35.41467999748416	5.273302540006407	50.89960999903265
1	main	83	1	1	0.8012324840019573	1	0.8121870290015067	0.7933471230026043	-0.018839905998902395	6.652876997395696	4.528349200043303	1.2324840019573013
1	main	84	1	1	0.7662617470014084	1	0.7800665740032855	0.7623168480022287	-0.017749726001056843	37.68315199777139	4.003791895009053	33.738252998591676
1	main	85	1	1	0.8508220139992773	1	0.8600332470014109	0.8363416600004712	-0.023691587000939762	36.34166000047112	5.272119264989451	50.82201399927722
1	main	86	0	0	NaN	0.55	0.8600332470014109	0.8363416600004712	-0.023691587000939762	36.34166000047112	0.7599999999999998	50.82201399927722
1	main	87	1	1	0.8008251300016127	1	0.8202031900000293	0.7960730890008563	-0.02413010099917301	3.9269109991437734	4.5221956299772135	0.8251300016126617
1	main	88	0	0	NaN	0.5750000000000001	0.8202031900000293	0.7960730890008563	-0.02413010099917301	3.9269109991437734	1.1350000000000016	0.8251300016126617
1	main	89	1	1	0.818222734000301	1	0.8162608620004903	0.8069483060025959	-0.009312555997894378	6.948306002595883	4.7831503750219415	18.222734000300946
1	main	90	1	1	0.8342520000005607	1	0.8400260689995775	0.8209282620009617	-0.01909780699861585	20.928262000961652	5.023602340004581	34.252000000560614
1	main	91	1	1	0.8180424080019293	1	0.824028499002452	0.8047194640021189	-0.019309035000333097	4.719464002118867	4.780486750039708	18.042408001929246
1	main	92	1	1	0.8156711440024083	1	0.8200904980003543	0.8097190810003667	-0.01037141699998756	9.71908100036667	4.744938460005651	15.67114400240821
1	main	93	0	1	0.7997102160006762	0.6000000000000001	0.8000445590005256	0.7885106490030012	-0.01153390999752446	9.71908100036667	1.5100000000000016	15.67114400240821
1	main	94	0	1	0.8006187530008901	0.5750000000000001	0.8120744000007107	0.7983066199994937	-0.013767780001217034	9.71908100036667	1.1350000000000016	15.67114400240821
1	main	95	1	1	0.7836963800000376	1	0.784175035001681	0.7667782210010046	-0.017396814000676386	33.221778998995475	4.265309799991664	16.303619999962436
1	main	96	1	1	0.8171167590007826	1	0.8242278209982032	0.8067147399997339	-0.017513080998469377	6.714739999733821	4.7666073100279025	17.11675900078258
1	main	97	1	1	0.8180650069989497	1	0.8275295690000348	0.8049333159979142	-0.022596253002120648	4.933315997914134	4.780801435006433	18.06500699894964
1	main	98	1	1	0.7839836989987816	1	0.7880913429980865	0.7759202159977576	-0.012171127000328852	24.07978400224242	4.269614934981073	16.016301001218423
1	main	99	0	0	NaN	0.55	0.7880913429980865	0.7759202159977576	-0.012171127000328852	24.07978400224242	0.7599999999999998	16.016301001218423
1	main	100	1	1	0.8008759390031628	1	0.8201261989997874	0.8000540290013305	-0.020072169998456957	0.054029001330446746	4.522938880016008	0.8759390031627401
2	main	101	1	1	0.8006136730000435	1	0.8122727129994018	0.7964175970009819	-0.015855115998419933	3.5824029990181305	4.518997720004117	0.6136730000434465
2	main	102	1	1	0.8175049849996867	1	0.8280303930005175	0.8155636509982287	-0.012466742002288811	15.56365099822865	4.772431614981324	17.50498499968667
2	main	103	1	1	0.7673743859995739	1	0.7761973600026977	0.7646773840024252	-0.011519976000272436	35.3226159975748	4.020469135009771	32.62561400042618
2	main	104	0	1	0.7999983150002663	0.5750000000000001	0.8002387840024312	0.7875497759996506	-0.01268900800278061	35.3226159975748	1.1350000000000016	32.62561400042618
2	main	105	1	1	0.8174013810021279	1	0.8160330159989826	0.8063338270003442	-0.00969918899863842	6.333827000344128	4.770887065040151	17.40138100212785
2	main	106	0	0	NaN	0.55	0.8160330159989826	0.8063338270003442	-0.00969918899863842	6.333827000344128	0.7599999999999998	17.40138100212785
2	main	107	0	0	NaN	0.5750000000000001	0.8160330159989826	0.8063338270003442	-0.00969918899863842	6.333827000344128	1.1350000000000016	17.40138100212785
2	main	108	1	1	0.8827687689990853	1	0.8931474400014849	0.873782699000003	-0.01936474100148189	73.782699000003	5.751389784998318	82.76876899908525
2	main	109	0	1	0.8504117249976844	0.6000000000000001	0.8520505759988737	0.8331668559985701	-0.018883720000303583	73.782699000003	1.5100000000000016	82.76876899908525
2	main	110	0	1	0.8163206459976209	0.5750000000000001	0.8280832409982395	0.8110061459992721	-0.017077094998967368	73.782699000003	1.1350000000000016	82.76876899908525
2	main	111	0	0	NaN	0.55	0.8280832409982395	0.8110061459992721	-0.017077094998967368	73.782699000003	0.7599999999999998	82.76876899908525
2	main	112	1	1	0.8330916370032355	1	0.8320445970020955	0.8182499970025674	-0.013794599999528145	18.249997002567355	5.006237710001878	33.091637003235476
2	main	113	1	1	0.8682083649982815	1	0.8760268580008415	0.8542979109988664	-0.02172894700197503	54.297910998866385	5.5329108549792725	68.20836499828143
2	main	114	1	1	0.8004172229993856	1	0.8040720270000747	0.7911547039984725	-0.012917323001602199	8.845296001527503	4.516046200003766	0.41722299938551366
2	main	115	1	1	0.8001898699985759	1	0.8121172709979874	0.7986378479981795	-0.013479422999807866	1.362152001820549	4.512666520002094	0.1898699985758423
2	main	116	0	0	NaN	0.5750000000000001	0.8121172709979874	0.7986378479981795	-0.013479422999807866	1.362152001820549	1.1350000000000016	0.1898699985758423
2	main	117	0	1	0.8332728700006555	0.6000000000000001	0.8520543999984511	0.8323965829986264	-0.019657816999824718	1.362152001820549	1.5100000000000016	0.1898699985758423
2	main	118	0	1	0.8181749780014798	0.5750000000000001	0.8241599479988508	0.8132011679990683	-0.010958779999782564	1.362152001820549	1.1350000000000016	0.1898699985758423
2	main	119	1	1	0.900979843998357	1	0.9081023250000726	0.8876436249993276	-0.02045870000074501	87.64362499932754	6.024565104978828	100.97984399835691
2	main	120	1	1	0.818545684000128	1	0.8321528960004798	0.8167745840000862	-0.015378312000393635	16.774584000086136	4.787965480006969	18.545684000127906
2	main	121	1	1	0.7838899640009913	1	0.8001023219985655	0.7824962240010791	-0.01760609799748636	17.503775998920943	4.268085880046565	16.11003599900873
2	main	122	1	1	0.8501037179994455	1	0.8560716039974068	0.8369172289967537	-0.01915437500065309	36.91722899675365	5.261424414982466	50.103717999445465
2	main	123	0	0	NaN	0.55	0.8560716039974068	0.8369172289967537	-0.01915437500065309	36.91722899675365	0.7599999999999998	50.103717999445465
2	main	124	1	1	0.8683608819992514	1	0.8880330499996489	0.8679511059999641	-0.02008194399968488	67.95110599996401	5.535218889997632	68.36088199925139
2	main	125	0	0	NaN	0.5750000000000001	0.8880330499996489	0.8679511059999641	-0.02008194399968488	67.95110599996401	1.1350000000000016	68.36088199925139
2	main	126	1	1	0.8507476500017219	1	0.8492234320001444	0.8349606080009835	-0.0142628239991609	34.96060800098344	5.270986150042299	50.74765000172188
2	main	127	1	1	0.8334751929978665	1	0.8402711140006431	0.8239586339987	-0.016312480001943186	23.95863399869991	5.011891104948299	33.4751929978665
2	main	128	1	1	0.8329334379995998	1	0.8439158060027694	0.8243603709997842	-0.019555435002985178	24.360370999784166	5.0037670749568495	32.9334379995998
2	main	129	1	1	0.8184492710024642	1	0.8160042080016865	0.8075874250025663	-0.008416782999120187	7.5874250025662615	4.786521940020757	18.449271002464187
2	main	130	0	1	0.8008911500000977	0.6000000000000001	0.8241005199997744	0.7995323809991532	-0.02456813900062116	7.5874250025662615	1.5100000000000016	18.449271002464187
2	main	131	1	1	0.7497790639972663	1	0.7561213269982545	0.7393947879972984	-0.01672653900095611	60.605212002701634	3.7565481999970505	50.220936002733694
2	main	132	1	1	0.800238306997926	1	0.8000004739988071	0.7873078829979931	-0.01269259100081399	12.692117002006897	4.513436139966652	0.23830699792593002
2	main	133	1	1	0.817229745000077	1	0.8362092949973885	0.816342235000775	-0.019867059996613534	16.34223500077492	4.768141720049025	17.229745000076903
2	main	134	1	1	0.834142043000611	1	0.8400720440004079	0.8289062869989721	-0.01116575700143585	28.90628699897202	5.021991685005341	34.14204300061097
2	main	135	1	1	0.8180193959997268	1	0.8322529510005552	0.8100823409986333	-0.022170610001921887	10.082340998633255	4.780079364989215	18.019395999726797
2	main	136	1	1	0.8002673200026038	1	0.804284882000502	0.7920516500016674	-0.012233231998834526	7.9483499983326045	4.5137992300422045	0.26732000260376587
2	main	137	1	1	0.8171117800011416	1	0.8321162909996929	0.8162722150009358	-0.015844075998757035	16.272215000935788	4.766477665014245	17.111780001141554
2	main	138	0	1	0.8011162020011398	0.5750000000000001	0.8131256579981709	0.790942259998701	-0.02218339799946989	16.272215000935788	1.1350000000000016	17.111780001141554
2	main	139	1	1	0.7828978789984831	1	0.796089405001112	0.7758903079993615	-0.020199097001750488	24.109692000638503	4.253328084958193	17.102121001516977
2	main	140	1	1	0.7674853680000524	1	0.776031305998913	0.7647154039987072	-0.011315902000205824	35.284596001292854	4.022141245020757	32.51463199994764
2	main	141	1	1	0.817862937998143	1	0.8240232200005266	0.8060810239985585	-0.017942196001968114	6.081023998558477	4.77773417500226	17.862937998142982
2	main	142	1	1	0.8175935849976668	1	0.8280628940010502	0.8147943529984332	-0.013268541002616985	14.794352998433125	4.7737667349954425	17.593584997666724
2	main	143	0	0	NaN	0.55	0.8280628940010502	0.8147943529984332	-0.013268541002616985	14.794352998433125	0.7599999999999998	17.593584997666724
2	main	144	1	1	0.8337561280022783	1	0.8400833000014245	0.8236543070015614	-0.016428992999863112	23.65430700156135	5.016209410003066	33.75612800227823
2	main	145	1	1	0.8181165120004152	1	0.8242377459973795	0.808924193999701	-0.015313551997678587	8.924193999700902	4.781506405013497	18.1165120004152
2	main	146	1	1	0.7657607020009891	1	0.7720802680014458	0.7519939800004067	-0.020086288001039065	48.006019999593306	3.9962640850151363	34.23929799901093
2	main	147	1	1	0.8675423070017132	1	0.8640289430004486	0.8520219740021275	-0.0120069689983211	52.02197400212749	5.522983930002519	67.54230700171316
2	main	148	0	1	0.8005666680001013	0.5750000000000001	0.8201642960011668	0.7993377599996165	-0.020826536001550267	52.02197400212749	1.1350000000000016	67.54230700171316
2	main	149	1	1	0.783460095000919	1	0.7880640430012136	0.7723783680012275	-0.015685674999986077	27.621631998772543	4.26175513002614	16.539904999081088
2	main	150	1	1	0.8841430800021044	1	0.8880533390001801	0.8697895510013041	-0.01826378799887607	69.78955100130402	5.771982625008386	84.14308000210436
2	main	151	1	1	0.783039619000192	1	0.7921046299998125	0.7804666859992722	-0.011637944000540301	19.533314000727884	4.255461505015555	16.96038099980801
2	main	152	1	1	0.8005176299993764	1	0.8002585340000223	0.7876546079969557	-0.01260392600306659	12.345392003044298	4.51755122496048	0.5176299993763234
2	main	153	0	1	0.8837671229994157	0.55	0.8840427089999139	0.8707766719999199	-0.013266036999993958	12.345392003044298	0.7599999999999998	0.5176299993763234
2	main	154	1	1	0.8012637979991268	1	0.8122338760003913	0.7916883629986842	-0.02054551300170715	8.311637001315875	4.528747420006548	1.2637979991267922
2	main	155	1	1	0.7675860039998952	1	0.7802396090010006	0.7615120769987698	-0.018727532002230873	38.48792300123027	4.023579954989836	32.41399600010486
2	main	156	0	0	NaN	0.5250000000000001	0.7802396090010006	0.7615120769987698	-0.018727532002230873	38.48792300123027	0.38500000000000156	32.41399600010486
2	main	157	1	1	0.8329364860001078	1	0.8361515899996448	0.822158770999522	-0.013992819000122836	22.158770999521906	5.003906349991448	32.93648600010779
2	main	158	1	1	0.7836407459981274	1	0.8000717569993867	0.7776621640005033	-0.022409592998883454	22.33783599949679	4.264471210006159	16.359254001872657
2	main	159	1	1	0.7830793279972568	1	0.7961950170029013	0.7742383080003492	-0.02195670900255209	25.761691999650836	4.256048964996589	16.920672002743274
2	main	160	0	0	NaN	0.55	0.7961950170029013	0.7742383080003492	-0.02195670900255209	25.761691999650836	0.7599999999999998	16.920672002743274
2	main	161	1	1	0.817675483001949	1	0.8240437249987735	0.8018324469994695	-0.022211277999304002	1.8324469994694947	4.774918119981303	17.67548300194899
2	main	162	1	1	0.7841109199980565	1	0.7920708959973126	0.7721635889975005	-0.019907306999812135	27.83641100249956	4.271535069981619	15.889080001943556
2	main	163	1	1	0.7834494000017003	1	0.7841201580013148	0.7744992800035106	-0.0096208779978042	25.500719996489394	4.261609195034689	16.550599998299774
2	main	164	1	1	0.8323710719996598	1	0.8481654339993838	0.8273878159998276	-0.02077761799955624	27.387815999827538	4.995434814971086	32.37107199965972
2	main	165	0	1	0.7830592850004905	0.5750000000000001	0.7960578029997123	0.7721261570004572	-0.023931645999255124	27.387815999827538	1.1350000000000016	32.37107199965972
2	main	166	1	1	0.7503400460009289	1	0.7520555029987008	0.7405689429979248	-0.01148656000077608	59.43105700207529	3.7649619399942456	49.65995399907119
2	main	167	1	1	0.7664462630018534	1	0.784121401997254	0.7651505399990128	-0.018970861998241162	34.84946000098721	4.0065065650176255	33.553736998146675
2	main	168	1	1	0.7506988660024945	1	0.7641771360031271	0.7481930150024709	-0.01598412100065616	51.80698499752911	3.7702904200139162	49.30113399750557
2	main	169	0	1	0.765951193003275	0.55	0.7881261689981329	0.7629768760016304	-0.02514929299650248	51.80698499752911	0.7599999999999998	49.30113399750557
2	main	170	1	1	0.7660261099990748	1	0.7720568330005335	0.7522448780000559	-0.01981195500047761	47.75512199994414	4.000256349970877	33.97389000092521
2	main	171	1	1	0.7661735950023285	1	0.7760353090015997	0.7601281630013546	-0.01590714600024512	39.87183699864549	4.002478090021905	33.82640499767153
2	main	172	1	1	0.7338611220002349	1	0.7440383360008127	0.7307927590009058	-0.013245576999906916	69.20724099909425	3.5177519950209533	66.13887799976514
2	main	173	1	1	0.7336374749975221	1	0.7442403220011329	0.7301351919995795	-0.014105130001553334	69.8648080004205	3.514343604981841	66.36252500247797
2	main	174	1	1	0.7667835409993131	1	0.776052797002194	0.762580574999447	-0.013472222002747003	37.41942500055306	4.011599784987775	33.216459000686925
2	main	175	1	1	0.8007981830014614	1	0.8042078889993718	0.7959870320009941	-0.008220856998377712	4.0129679990059675	4.521786115017457	0.7981830014613944
2	main	176	1	1	0.7849909970027511	1	0.7802844450015982	0.7721465280010307	-0.00813791700056754	27.85347199896937	4.284690264992387	15.009002997248944
2	main	177	1	1	0.750663839000481	1	0.7557674870004121	0.7415609060008137	-0.014206580999598373	58.43909399918634	3.7698159850313093	49.336160999519095
2	main	178	1	1	0.7995678699990094	1	0.8000765130018408	0.7885705799999414	-0.011505933001899393	11.429420000058643	4.503376149985124	0.43213000099062704
2	main	179	1	1	0.7831178569977055	1	0.7840645699980087	0.7697174299973994	-0.014347140000609215	30.282570002600593	4.256557735004899	16.882143002294512
2	main	180	1	1	0.7498098529977142	1	0.7520413399979589	0.7389571719977539	-0.013084168000204954	61.04282800224614	3.7570099749771177	50.190147002285855
2	main	181	1	1	0.7506716919997416	1	0.7600706610028283	0.7377867370014428	-0.022283924001385458	62.21326299855723	3.769885044983093	49.328308000258446
2	main	182	1	1	0.7838708380004391	1	0.8002586039983726	0.7792124590014282	-0.02104614499694435	20.787540998571828	4.2679318150455945	16.129161999560935
2	main	183	1	1	0.816473123999458	1	0.8200698139989981	0.8011010039990651	-0.018968809999933	1.1010039990650977	4.756961155015015	16.473123999457997
2	main	184	1	1	0.8002942400016764	1	0.8162574210000457	0.7937598450007499	-0.022497575999295805	6.240154999250125	4.514190715015284	0.2942400016763269
2	main	185	1	1	0.8335202570015099	1	0.8360278020008991	0.8251145190006355	-0.010913283000263618	25.11451900063544	5.012660935006133	33.52025700150985
2	main	186	0	1	0.7323254089969851	0.5250000000000001	0.7480348899989622	0.7299686269980157	-0.018066263000946492	25.11451900063544	0.38500000000000156	33.52025700150985
2	main	187	1	1	0.7505779450002592	1	0.7720345569978235	0.7485707779997028	-0.023463778998120688	51.4292220002972	3.768498475035594	49.42205499974084
2	main	188	0	0	NaN	0.5	0.7720345569978235	0.7485707779997028	-0.023463778998120688	51.4292220002972	0.009999999999999787	49.42205499974084
2	main	189	1	1	0.8339047939989541	1	0.8521511430008104	0.8281193010006973	-0.0240318420001131	28.119301000697263	5.018363784982066	33.90479399895408
2	main	190	1	1	0.8007475800004613	1	0.8081603909995465	0.7960969769992516	-0.01206341400029487	3.903023000748407	4.5210035050129225	0.7475800004612676
2	main	191	1	1	0.8334427259978838	1	0.8406719800004794	0.8217700269997295	-0.018901953000749927	21.77002699972941	5.0114630049736295	33.442725997883784
2	main	192	1	1	0.783020539998688	1	0.7920696540022618	0.7805617470003199	-0.01150790700194193	19.43825299968016	4.255062789996154	16.979460001312006
2	main	193	0	0	NaN	0.5250000000000001	0.7920696540022618	0.7805617470003199	-0.01150790700194193	19.43825299968016	0.38500000000000156	16.979460001312006
2	main	194	0	0	NaN	0.55	0.7920696540022618	0.7805617470003199	-0.01150790700194193	19.43825299968016	0.7599999999999998	16.979460001312006
2	main	195	1	1	0.8008944900029746	1	0.8080526430021564	0.7858627410023473	-0.02218990199980908	14.137258997652724	4.523209570031904	0.8944900029745906
2	main	196	1	1	0.8006643509979767	1	0.8121526489994721	0.792593529997248	-0.01955911900222418	7.406470002752075	4.519826769954088	0.6643509979766815
2	main	197	1	1	0.7999822390011104	1	0.8081447630029288	0.7994188670018048	-0.008725896001124056	0.5811329981952884	4.5095407000169505	0.017760998889615465
2	main	198	1	1	0.8160924370022258	1	0.8282544179965043	0.805811124999309	-0.022443292997195385	5.811124999308914	4.7512430500298795	16.092437002225736
2	main	199	0	1	0.7666926780002541	0.5750000000000001	0.7882204490015283	0.7639700180006912	-0.024250431000837125	5.811124999308914	1.1350000000000016	16.092437002225736
2	main	200	1	1	0.7995902660004504	1	0.8120764330014936	0.7885840890012332	-0.023492344000260346	11.41591099876682	4.503725740012451	0.4097339995496885
