Block	TrialType	Trial	Signal	Response	RT	SSD	keyDuration	keyDuration_startSyched	keyRT	feedback_ms	vert	feedback_synched
1	practice	1	1	1	0.834582452000177	1	0.844023706005828	0.8194809230044484	-0.024542783001379576	19.48092300444837	5.028385629991826	34.58245200017696
1	practice	2	1	1	0.7831341399942175	1	0.7998749639955349	0.7739650149960653	-0.025909948999469634	26.03498500393475	4.256867394977016	16.865860005782494
1	practice	3	1	1	0.8332694060009089	1	0.8561081669977284	0.8328296460022102	-0.023278520995518193	32.82964600221017	5.0089068850482	33.26940600090889
1	practice	4	0	0	NaN	0.5	0.8561081669977284	0.8328296460022102	-0.023278520995518193	32.82964600221017	0.009999999999999787	33.26940600090889
1	practice	5	0	0	NaN	0.5250000000000001	0.8561081669977284	0.8328296460022102	-0.023278520995518193	32.82964600221017	0.38500000000000156	33.26940600090889
1	practice	6	0	1	0.11675826500140829	0.55	0.1362423780010431	0.11202616499940632	-0.024216213001636788	32.82964600221017	-5.738814484977629	33.26940600090889
1	main	1	1	1	0.7679559770040214	1	0.783246387996769	0.7674319700017804	-0.015814417994988617	32.568029998219615	4.029103749997157	32.04402299597864
1	main	2	0	0	NaN	0.47500000000000003	0.783246387996769	0.7674319700017804	-0.015814417994988617	32.568029998219615	-0.3649999999999993	32.04402299597864
1	main	3	1	1	0.8523579799948493	1	0.8520600099946023	0.838691654993454	-0.013368355001148302	38.69165499345395	5.295177849946194	52.35797999484926
1	main	4	1	1	0.8013528880037484	1	0.8201586770010181	0.7992969620026997	-0.020861714998318348	0.7030379973003154	4.529457505048194	1.3528880037483315
1	main	5	1	1	0.8659581100000651	1	0.8677722150023328	0.8507412550025037	-0.017030959999829065	50.741255002503706	5.499238420086622	65.95811000006502
1	main	6	1	1	0.8003148499992676	1	0.8120998880040133	0.7988635029978468	-0.013236385006166529	1.1364970021532361	4.514580129942042	0.3148499992675635
1	main	7	1	1	0.8005915179965086	1	0.7960580950020812	0.7872364099966944	-0.008821685005386826	12.763590003305625	4.518744025006308	0.5915179965085837
1	main	8	1	1	0.8848146700038342	1	0.8880432049991214	0.8696400920016458	-0.018403112997475546	69.64009200164578	5.782012749985151	84.81467000383414
1	main	9	1	1	0.800388394993206	1	0.8080913849989884	0.7867512349985191	-0.021340150000469293	13.248765001480978	4.515628179977066	0.38839499320597604
1	main	10	1	1	0.801173462998122	1	0.8000562730012462	0.7882191929966211	-0.011837080004625022	11.780807003378913	4.527466030010837	1.1734629981219324
1	main	11	1	1	0.8002660740021383	1	0.8040418199962005	0.7854054639974493	-0.01863635599875124	14.594536002550784	4.513854460017464	0.2660740021382946
1	main	12	1	1	0.800774087998434	1	0.8041361130017322	0.7876359880028758	-0.016500124998856336	12.364011997124225	4.521475915023766	0.7740879984339255
1	main	13	0	0	NaN	0.5	0.8041361130017322	0.7876359880028758	-0.016500124998856336	12.364011997124225	0.009999999999999787	0.7740879984339255
1	main	14	1	1	0.9503061809955398	1	0.9601317400010885	0.9423099949999596	-0.017821745001128875	142.30999499995954	6.764375574964797	150.3061809955397
1	main	15	1	1	0.7668377050067647	1	0.7801257139944937	0.7620334849998471	-0.018092228994646575	37.96651500015291	4.012432045053865	33.16229499323531
1	main	16	1	1	0.8168275949938106	1	0.819240026998159	0.8041817749981419	-0.015058252000017092	4.181774998141874	4.762241499991214	16.827594993810592
1	main	17	0	1	0.8185488019953482	0.5250000000000001	0.8281049049983267	0.8166772299955483	-0.011427675002778415	4.181774998141874	0.38500000000000156	16.827594993810592
1	main	18	0	0	NaN	0.5	0.8281049049983267	0.8166772299955483	-0.011427675002778415	4.181774998141874	0.009999999999999787	16.827594993810592
1	main	19	1	1	0.8163534070044989	1	0.8320303799991962	0.8099758719981764	-0.022054508001019713	9.9758719981764	4.755107005073805	16.353407004498834
1	main	20	0	0	NaN	0.5250000000000001	0.8320303799991962	0.8099758719981764	-0.022054508001019713	9.9758719981764	0.38500000000000156	16.353407004498834
1	main	21	1	1	0.8171478229996865	1	0.8280192389938748	0.802923256997019	-0.0250959819968557	2.923256997019008	4.767076570058416	17.147822999686426
1	main	22	1	1	0.849466970001231	1	0.8639503850063193	0.840453263001109	-0.023497122005210258	40.453263001108965	5.251860969981644	49.466970001230905
1	main	23	1	1	0.8335371049979585	1	0.8441029199966579	0.8256919749983354	-0.01841094499832252	25.69197499833531	5.012921440027421	33.53710499795848
1	main	24	1	1	0.8014382949986611	1	0.8042169749969617	0.7953028449992416	-0.00891412999772001	4.697155000758402	4.531365250002418	1.4382949986611049
1	main	25	1	1	0.8004397850017995	1	0.8075851950052311	0.7952274300041609	-0.01235776500107022	4.772569995839193	4.516392655057425	0.4397850017994198
1	main	26	1	1	0.7513532480006688	1	0.7641070890022092	0.7396978449978633	-0.024409244004345965	60.30215500213676	3.7800896200112764	48.646751999331215
1	main	27	1	1	0.8174206599942409	1	0.828114034004102	0.8167624470006558	-0.011351587003446184	16.76244700065577	4.771110849904071	17.420659994240808
1	main	28	1	1	0.8510000419992139	1	0.8600167300028261	0.8390807270043297	-0.020936002998496406	39.08072700432963	5.2747966300719415	51.00004199921382
1	main	29	1	1	0.8507146839983761	1	0.8680345109969494	0.8429118409985676	-0.025122669998381753	42.9118409985676	5.270488015010196	50.71468399837609
1	main	30	1	1	0.7832645089947619	1	0.7840275870039477	0.7713301440016949	-0.01269744300225284	28.66985599830518	4.258833655001363	16.735491005238188
1	main	31	1	1	0.8169994269992458	1	0.8200511169998208	0.8003868739979225	-0.019664243001898285	0.3868739979224767	4.764816579988983	16.999426999245728
1	main	32	1	1	0.7668264149979223	1	0.7680544969989569	0.7556050019993563	-0.012449494999600574	44.394998000643724	4.012152774992282	33.173585002077786
1	main	33	0	1	0.8162253939954098	0.55	0.8280612180024036	0.8098527999973157	-0.01820841800508788	44.394998000643724	0.7599999999999998	33.173585002077786
1	main	34	0	0	NaN	0.5250000000000001	0.8280612180024036	0.8098527999973157	-0.01820841800508788	44.394998000643724	0.38500000000000156	33.173585002077786
1	main	35	0	0	NaN	0.55	0.8280612180024036	0.8098527999973157	-0.01820841800508788	44.394998000643724	0.7599999999999998	33.173585002077786
1	main	36	1	1	0.8172745650008437	1	0.8320244010028546	0.8101095980018727	-0.02191480300098192	10.10959800187261	4.768892515055777	17.27456500084368
1	main	37	0	1	0.8172246300018742	0.5750000000000001	0.8280677099974127	0.8093592099976377	-0.018708499999775086	10.10959800187261	1.1350000000000016	17.27456500084368
1	main	38	1	0	NaN	1	0.8280677099974127	0.8093592099976377	-0.018708499999775086	10.10959800187261	7.51	17.27456500084368
1	main	39	1	1	0.8006286820018431	1	0.8160933639956056	0.7911297120008385	-0.024963651994767133	8.870287999161564	4.519239280014299	0.6286820018430728
1	main	40	1	1	0.8163493979955092	1	0.8280588439956773	0.8035030299943173	-0.024555814001359977	3.503029994317286	4.755106599948485	16.349397995509165
1	main	41	1	1	0.8173486849991605	1	0.8317961819993798	0.814000375001342	-0.017795806998037733	14.000375001341991	4.7700428650184765	17.348684999160426
1	main	42	1	1	0.8341511600010563	1	0.8400590980018023	0.8221963250034605	-0.017862772998341825	22.196325003460473	5.022134680000599	34.151160001056226
1	main	43	1	1	0.8008463639998809	1	0.8042059279978275	0.7897536679956829	-0.014452260002144612	10.246332004317127	4.522511259927123	0.8463639998808059
1	main	44	0	1	0.8172744240000611	0.55	0.8281294479966164	0.8111611619970063	-0.01696828599961009	10.246332004317127	0.7599999999999998	0.8463639998808059
1	main	45	1	1	0.8160926909986301	1	0.8320249489988782	0.8135234399960609	-0.01850150900281733	13.52343999606087	4.751249094986415	16.09269099863009
1	main	46	0	0	NaN	0.5250000000000001	0.8320249489988782	0.8135234399960609	-0.01850150900281733	13.52343999606087	0.38500000000000156	16.09269099863009
1	main	47	1	0	NaN	1	0.8320249489988782	0.8135234399960609	-0.01850150900281733	13.52343999606087	7.51	16.09269099863009
1	main	48	0	1	0.7999850850028452	0.55	0.8122200360012357	0.7956220750056673	-0.016597960995568428	13.52343999606087	0.7599999999999998	16.09269099863009
1	main	49	1	1	0.8344218190031825	1	0.8560915589987417	0.8335486159994616	-0.022542942999280058	33.548615999461575	5.026144330038514	34.42181900318242
1	main	50	1	1	0.8178363039987744	1	0.8240381440045894	0.8018125040034647	-0.022225640001124702	1.8125040034646656	4.777410669992387	17.83630399877434
1	main	51	1	1	0.8678723630000604	1	0.8641749870002968	0.855171180999605	-0.009003806000691839	55.17118099960494	5.5278957700627505	67.87236300006039
1	main	52	0	0	NaN	0.5250000000000001	0.8641749870002968	0.855171180999605	-0.009003806000691839	55.17118099960494	0.38500000000000156	67.87236300006039
1	main	53	0	1	0.783301664996543	0.55	0.7840637139961473	0.7682361389961443	-0.01582757500000298	55.17118099960494	0.7599999999999998	67.87236300006039
1	main	54	1	1	0.8178679080010625	1	0.8160809109976981	0.8022689450008329	-0.013811965996865183	2.268945000832856	4.777881160078104	17.867908001062418
1	main	55	1	1	0.7994673670036718	1	0.8160849599953508	0.7922543710010359	-0.023830588994314894	7.745628998964138	4.501827025085513	0.5326329963282195
1	main	56	1	1	0.8017822809997597	1	0.8080598999949871	0.7952530779948574	-0.012806822000129614	4.746922005142595	4.536513220007473	1.7822809997596334
1	main	57	1	1	0.8324951569957193	1	0.831639140000334	0.8196221719990717	-0.012016968001262285	19.622171999071682	4.99729317998368	32.495156995719256
1	main	58	1	1	0.8341807550023077	1	0.8280649880034616	0.8179294800065691	-0.010135507996892557	17.929480006569023	5.0225737300913895	34.18075500230766
1	main	59	1	1	0.8006018170053721	1	0.8160908899953938	0.7954638980008895	-0.02062699199450435	4.536101999110587	4.5188203750856335	0.6018170053720961
1	main	60	1	1	0.7995025819982402	1	0.8200218959973427	0.7963841620003222	-0.023637733997020405	3.6158379996777956	4.50240688001737	0.49741800175984174
1	main	61	0	0	NaN	0.5250000000000001	0.8200218959973427	0.7963841620003222	-0.023637733997020405	3.6158379996777956	0.38500000000000156	0.49741800175984174
1	main	62	1	1	0.8350769789976766	1	0.820043160005298	0.8027263460026006	-0.017316814002697356	2.726346002600577	5.036015035036835	35.07697899767659
1	main	63	1	1	0.8507857209988288	1	0.8841066239983775	0.8479956309965928	-0.036110993001784664	47.995630996592766	5.271562974992557	50.78572099882872
1	main	64	1	1	0.8344038649956929	1	0.8440044060043874	0.8203426330001093	-0.023661773004278075	20.342633000109302	5.025885145003267	34.403864995692814
1	main	65	0	1	0.7334531629967387	0.55	0.7400343619956402	0.7246323149956879	-0.01540204699995229	20.342633000109302	0.7599999999999998	34.403864995692814
1	main	66	1	1	0.7175784819992259	1	0.7200632130043232	0.7096363980017486	-0.010426815002574585	90.36360199825144	3.273468504992488	82.42151800077413
1	main	67	0	1	0.8001113419959438	0.5250000000000001	0.8080943179957103	0.7870009269972797	-0.02109339099843055	90.36360199825144	0.38500000000000156	82.42151800077413
1	main	68	1	1	0.7666221899999073	1	0.7722396069948445	0.7583309349938645	-0.013908672000980005	41.66906500613554	4.00919666491769	33.377810000092765
1	main	69	1	1	0.8660653350016219	1	0.8760056559985969	0.8519489129976137	-0.02405674300098326	51.94891299761362	5.500843524967204	66.06533500162182
1	main	70	1	1	0.7677610489990911	1	0.7761315050011035	0.7663058320031269	-0.009825672997976653	33.69416799687319	4.026210790032346	32.2389510009089
1	main	71	1	1	0.8000943989973166	1	0.8201582219990087	0.7989756089955335	-0.021182613003475126	1.0243910044664961	4.511254554961633	0.09439899731655821
1	main	72	1	1	0.8008732650050661	1	0.8121214970014989	0.7994997670029989	-0.012621729998500086	0.5002329970011932	4.5229200550582025	0.8732650050660151
1	main	73	0	0	NaN	0.5	0.8121214970014989	0.7994997670029989	-0.012621729998500086	0.5002329970011932	0.009999999999999787	0.8732650050660151
1	main	74	0	1	0.0665625409965287	0.5250000000000001	0.08817020700371359	0.06615716699889163	-0.02201304000482196	0.5002329970011932	-6.491756885008945	0.8732650050660151
1	main	75	1	1	0.8343239780006115	1	0.8360340029976214	0.8174307349981973	-0.018603267999424133	17.430734998197252	5.024649370023107	34.32397800061149
1	main	76	1	1	0.867509442003211	1	0.8720254439976998	0.8581706400000257	-0.013854803997674026	58.1706400000257	5.522455690077331	67.50944200321096
1	main	77	0	0	NaN	0.5	0.8720254439976998	0.8581706400000257	-0.013854803997674026	58.1706400000257	0.009999999999999787	67.50944200321096
1	main	78	1	1	0.784473325998988	1	0.7800925320043461	0.7703528800047934	-0.009739651999552734	29.647119995206637	4.27689311498194	15.526674001012042
1	main	79	1	1	0.8672177249973174	1	0.8682320369989611	0.8565711519986507	-0.011660885000310373	56.571151998650706	5.518136919925164	67.21772499731738
1	main	80	1	1	0.8005913439992582	1	0.8241235519963084	0.7998333099967567	-0.024290241999551654	0.1666900032433194	4.518678909951413	0.5913439992581981
1	main	81	0	0	NaN	0.5250000000000001	0.8241235519963084	0.7998333099967567	-0.024290241999551654	0.1666900032433194	0.38500000000000156	0.5913439992581981
1	main	82	0	0	NaN	0.55	0.8241235519963084	0.7998333099967567	-0.024290241999551654	0.1666900032433194	0.7599999999999998	0.5913439992581981
1	main	83	0	1	0.7832724809995852	0.5750000000000001	0.8082297560031293	0.7797907860003761	-0.028438970002753194	0.1666900032433194	1.1350000000000016	0.5913439992581981
1	main	84	1	1	0.8654239200041047	1	0.8841000530010206	0.8622402050023084	-0.021859847998712212	62.240205002308315	5.49122180505743	65.42392000410469
1	main	85	1	1	0.7842791869989014	1	0.8000857149963849	0.7815624819995719	-0.01852323299681302	18.437518000428142	4.273982380034576	15.720813001098621
1	main	86	1	1	0.8343517929970403	1	0.8400746609986527	0.8184919039995293	-0.021582756999123376	18.49190399952927	5.0250729400047565	34.35179299704028
1	main	87	0	0	NaN	0.55	0.8400746609986527	0.8184919039995293	-0.021582756999123376	18.49190399952927	0.7599999999999998	34.35179299704028
1	main	88	1	1	0.9333653319990844	1	0.940090689000499	0.9189441069975146	-0.02114658200298436	118.94410699751457	6.510341680002748	133.3653319990844
1	main	89	1	1	0.8507944550001412	1	0.8640884920023382	0.8398842840033467	-0.024204207998991478	39.88428400334665	5.271732130093151	50.79445500014113
1	main	90	1	1	0.8349286450029467	1	0.8360651750044781	0.8191420670045773	-0.01692310799990082	19.142067004577214	5.033719750060991	34.92864500294668
1	main	91	1	1	0.8333524170011515	1	0.8522754049990908	0.8303403600002639	-0.021935044998826925	30.340360000263857	5.010071425092756	33.35241700115144
1	main	92	1	1	0.83259851999901	1	0.8521415020004497	0.8277916389997699	-0.02434986300067976	27.791638999769887	4.998835689946427	32.59851999900998
1	main	93	1	1	0.7678070019974257	1	0.7801598369987914	0.765734356995381	-0.014425480003410485	34.26564300461909	4.02689198501117	32.192998002574356
1	main	94	1	1	0.7838059999994584	1	0.7961114939971594	0.7758690740010934	-0.02024241999606602	24.130925998906648	4.266950004964892	16.194000000541607
1	main	95	0	1	0.8156146999972407	0.5750000000000001	0.8160879179995391	0.802320538998174	-0.013767379001365043	24.130925998906648	1.1350000000000016	16.194000000541607
1	main	96	1	1	0.7676429860002827	1	0.7680283779991441	0.7547100480005611	-0.013318329998583067	45.28995199943897	4.024506280036585	32.35701399971735
1	main	97	1	1	0.7338578670023708	1	0.756168237006932	0.7315122170039103	-0.024656020003021695	68.4877829960897	3.5176470550120573	66.14213299762928
1	main	98	1	1	0.8329349070045282	1	0.8440501799996127	0.830378937003843	-0.013671242995769717	30.378937003842978	5.00388625001302	32.93490700452817
1	main	99	1	1	0.833265459004906	1	0.8440529520012205	0.8249839490017621	-0.019069002999458462	24.983949001762042	5.00879390506976	33.26545900490596
1	main	100	1	1	0.8002930280053988	1	0.8080507179984124	0.7864138310033013	-0.021636886995111126	13.586168996698733	4.514186845042568	0.2930280053987655
2	main	101	1	1	0.8346601730008842	1	0.8440629819961032	0.8212116299982881	-0.022851351997815073	21.211629998288075	5.029697169955179	34.6601730008842
2	main	102	0	0	NaN	0.55	0.8440629819961032	0.8212116299982881	-0.022851351997815073	21.211629998288075	0.7599999999999998	34.6601730008842
2	main	103	1	1	0.8165272650003317	1	0.8280469300007098	0.8095087379988399	-0.018538192001869902	9.508737998839889	4.757774379975453	16.52726500033164
2	main	104	1	1	0.8500152679989696	1	0.8601095530029852	0.8429595730049186	-0.017149979998066556	42.959573004918596	5.260020024977857	50.015267998969605
2	main	105	1	1	0.7840339380054502	1	0.792119593003008	0.7780317080032546	-0.014087884999753442	21.968291996745435	4.270368805043981	15.966061994549863
2	main	106	1	1	0.8339457080001011	1	0.8481561309963581	0.8309321379929315	-0.017223993003426585	30.932137992931487	5.018976894896477	33.94570800010111
2	main	107	1	1	0.8501425240028766	1	0.8600497220031684	0.8477108880033484	-0.012338833999820054	47.71088800334833	5.262001420012675	50.142524002876556
2	main	108	1	1	0.850675069996214	1	0.8480876600006013	0.8352810899959877	-0.012806570004613604	35.28108999598767	5.26989452497015	50.67506999621396
2	main	109	1	1	0.8011587150031119	1	0.8081961019997834	0.7926330379996216	-0.01556306400016183	7.366962000378452	4.526738919992349	1.158715003111821
2	main	110	1	1	0.8173730179987615	1	0.8200640799987013	0.8025156549992971	-0.017548424999404233	2.515654999297068	4.770462250051205	17.373017998761455
2	main	111	1	1	0.8330791820044396	1	0.8401503869972657	0.8221945370023604	-0.017955849994905293	22.194537002360406	5.006045455009152	33.0791820044396
2	main	112	1	1	0.783106670001871	1	0.7881283419992542	0.773233229003381	-0.014895112995873205	26.76677099661906	4.2564304301029185	16.89332999812909
2	main	113	0	0	NaN	0.5750000000000001	0.7881283419992542	0.773233229003381	-0.014895112995873205	26.76677099661906	1.1350000000000016	16.89332999812909
2	main	114	1	1	0.8349089680050383	1	0.8520711879973533	0.834556303001591	-0.01751488499576226	34.55630300159096	5.033360500053968	34.90896800503829
2	main	115	1	1	0.8338929820019985	1	0.844271044996276	0.8221890770000755	-0.022081967996200547	22.189077000075443	5.018240410024882	33.89298200199842
2	main	116	1	1	0.8004659940052079	1	0.8080618550011422	0.7856055900047068	-0.022456264996435493	14.39440999529329	4.516859725042886	0.4659940052078593
2	main	117	0	1	0.8171752249982092	0.6000000000000001	0.835707646998344	0.8106154269989929	-0.025092219999351073	14.39440999529329	1.5100000000000016	0.4659940052078593
2	main	118	0	1	0.8341338020036346	0.5750000000000001	0.840041650000785	0.8179703519999748	-0.022071298000810202	14.39440999529329	1.1350000000000016	0.4659940052078593
2	main	119	1	1	0.8665821319955285	1	0.8722676149991457	0.8543291719979607	-0.017938443001185078	54.329171997960614	5.508589059970982	66.58213199552843
2	main	120	0	0	NaN	0.55	0.8722676149991457	0.8543291719979607	-0.017938443001185078	54.329171997960614	0.7599999999999998	66.58213199552843
2	main	121	1	1	0.8334444119973341	1	0.8480570019964944	0.8318460399968899	-0.01621096199960448	31.846039996889843	5.011539115000923	33.44441199733406
2	main	122	1	1	0.8504822719987715	1	0.8602134750035475	0.8435779900028137	-0.016635485000733752	43.577990002813706	5.267096905006619	50.482271998771424
2	main	123	1	1	0.867994952997833	1	0.8682396229996812	0.8556668210003409	-0.0125728019993403	55.66682100034082	5.529788440033153	67.99495299783298
2	main	124	1	1	0.8006801449955674	1	0.8120637300016824	0.7938196210016031	-0.018244109000079334	6.180378998396963	4.520066124967125	0.6801449955673444
2	main	125	1	1	0.7669354589961586	1	0.7760979180020513	0.7610024669993436	-0.015095451002707705	38.997533000656446	4.013903424963937	33.064541003841484
2	main	126	1	1	0.8167634890050977	1	0.8241893110025558	0.8001989600015804	-0.023990351000975352	0.19896000158037275	4.761316600086284	16.76348900509761
2	main	127	1	1	0.8330312550024246	1	0.8480743850013823	0.82862827200006	-0.019446113001322374	28.62827200005991	5.005332295075059	33.031255002424544
2	main	128	1	1	0.8502025970010436	1	0.8562667570004123	0.8389811880042544	-0.017285568996157963	38.98118800425432	5.262898375001678	50.20259700104357
2	main	129	1	1	0.8333685350007727	1	0.8480567229998996	0.8304583549979725	-0.017598368001927156	30.45835499797245	5.010313479940814	33.36853500077264
2	main	130	1	1	0.7505374120009947	1	0.7520553229987854	0.7376021119998768	-0.014453210998908617	62.397888000123245	3.76792969000031	49.46258799900538
2	main	131	1	1	0.7671386739966692	1	0.7720476070026052	0.7596434360020794	-0.012404171000525821	40.356563997920645	4.016746150043909	32.8613260033308
2	main	132	1	1	0.8000374990006094	1	0.8320651489993907	0.7974639020030736	-0.03460124699631706	2.536097996926445	4.510427080056397	0.0374990006093423
2	main	133	0	1	0.8349269300015294	0.5750000000000001	0.8481564530011383	0.8335634929972002	-0.01459296000393806	2.536097996926445	1.1350000000000016	0.0374990006093423
2	main	134	0	0	NaN	0.55	0.8481564530011383	0.8335634929972002	-0.01459296000393806	2.536097996926445	0.7599999999999998	0.0374990006093423
2	main	135	0	0	NaN	0.5750000000000001	0.8481564530011383	0.8335634929972002	-0.01459296000393806	2.536097996926445	1.1350000000000016	0.0374990006093423
2	main	136	1	1	0.7843059200022253	1	0.7920770199998515	0.7785302880001836	-0.013546731999667827	21.469711999816397	4.274375950006069	15.694079997774724
2	main	137	0	0	NaN	0.6000000000000001	0.7920770199998515	0.7785302880001836	-0.013546731999667827	21.469711999816397	1.5100000000000016	15.694079997774724
2	main	138	1	1	0.8512745929983794	1	0.8644985380014987	0.8501069150006515	-0.014391623000847176	50.106915000651455	5.278942075017548	51.27459299837933
2	main	139	1	1	0.8346675070060883	1	0.8360726390019408	0.8174381440039724	-0.01863449499796843	17.43814400397237	5.029798900066234	34.66750700608823
2	main	140	1	1	0.7672754939994775	1	0.7640652179979952	0.7514414799952647	-0.012623738002730533	48.55852000473537	4.018995729964226	32.72450600052257
2	main	141	1	1	0.8667164660000708	1	0.8840499549987726	0.8596497750040726	-0.02440017999470001	59.64977500407254	5.510598520084168	66.71646600007075
2	main	142	1	1	0.8180114319984568	1	0.816050446999725	0.8025457190015004	-0.013504727998224553	2.5457190015003572	4.779957324970164	18.011431998456786
2	main	143	1	1	0.7666220770042855	1	0.7762248380022356	0.75643226000102	-0.01979257800121559	43.56773999898	4.0091951350020825	33.37792299571451
2	main	144	0	1	0.8499313549982617	0.625	0.8680320599960396	0.842138611995324	-0.02589344800071558	43.56773999898	1.8849999999999998	33.37792299571451
2	main	145	1	1	0.8822602989966981	1	0.8920980850016349	0.8796130269984133	-0.012485058003221639	79.61302699841322	5.743762734962511	82.26029899669807
2	main	146	0	1	0.8668196389990044	0.6000000000000001	0.8800911259968416	0.859740410996892	-0.02035071499994956	79.61302699841322	1.5100000000000016	82.26029899669807
2	main	147	1	1	0.8846972920000553	1	0.900109127003816	0.8841741270007333	-0.015935000003082678	84.17412700073324	5.780235504933225	84.69729200005527
2	main	148	0	0	NaN	0.5750000000000001	0.900109127003816	0.8841741270007333	-0.015935000003082678	84.17412700073324	1.1350000000000016	84.69729200005527
2	main	149	1	1	0.8006008399970597	1	0.8082468100037659	0.7944755889984663	-0.013771221005299594	5.52441100153378	4.518803829994576	0.6008399970596212
2	main	150	1	1	0.8667029279968119	1	0.8803271620054147	0.8551416269983747	-0.025185535007040016	55.14162699837466	5.510356254924554	66.70292799681188
2	main	151	1	1	0.784784627998306	1	0.7920730749974609	0.7766568599981838	-0.015416214999277145	23.343140001816252	4.281551124984398	15.215372001694094
2	main	152	0	1	0.8165143099977286	0.6000000000000001	0.8160955179992015	0.8037013130015112	-0.012394204997690395	23.343140001816252	1.5100000000000016	15.215372001694094
2	main	153	0	0	NaN	0.5750000000000001	0.8160955179992015	0.8037013130015112	-0.012394204997690395	23.343140001816252	1.1350000000000016	15.215372001694094
2	main	154	1	0	NaN	1	0.8160955179992015	0.8037013130015112	-0.012394204997690395	23.343140001816252	7.51	15.215372001694094
2	main	155	1	1	0.7999514399998588	1	0.8121827499999199	0.786235471998225	-0.02594727800169494	13.764528001775078	4.509089035052748	0.04856000014119566
2	main	156	1	1	0.78296632799902	1	0.7879916310048429	0.7738811079980223	-0.014110523006820586	26.1188920019777	4.254363054967834	17.033672000980047
2	main	157	1	1	0.8164650979961152	1	0.8359421159984777	0.813472230998741	-0.022469884999736678	13.472230998740953	4.75684046494076	16.465097996115176
2	main	158	1	1	0.834851894993335	1	0.8482831400033319	0.826500479997776	-0.021782660005555954	26.50047999777594	5.032568979911739	34.851894993334966
2	main	159	1	1	0.8345326950002345	1	0.8400363079999806	0.8249237499985611	-0.01511255800141953	24.923749998561064	5.027780544985726	34.53269500023448
2	main	160	1	1	0.8010580879999907	1	0.8121155600019847	0.7899598369986052	-0.022155723003379535	10.040163001394875	4.525663869970012	1.0580879999906312
2	main	161	0	1	0.8004815329986741	0.6000000000000001	0.8160041679948336	0.7975101709962473	-0.018493996998586226	10.040163001394875	1.5100000000000016	1.0580879999906312
2	main	162	1	1	0.7680077440018067	1	0.7881601600020076	0.7654499350028345	-0.02271022499917308	34.55006499716551	4.029940809957916	31.99225599819333
2	main	163	1	1	0.8836772909999127	1	0.8880668169949786	0.8797559009981342	-0.008310915996844415	79.75590099813412	5.765017359952035	83.67729099991261
2	main	164	1	1	0.7847415620053653	1	0.7962243770016357	0.7841567920040688	-0.012067584997566883	15.843207995931197	4.280900125047774	15.258437994634777
2	main	165	0	1	0.8166789229944698	0.5750000000000001	0.8121520669956226	0.8011331999950926	-0.011018867000530008	15.843207995931197	1.1350000000000016	15.258437994634777
2	main	166	1	1	0.8163622459978797	1	0.8322222179995151	0.809467182996741	-0.022755035002774093	9.467182996740986	4.75529174494819	16.36224599787961
2	main	167	0	0	NaN	0.55	0.8322222179995151	0.809467182996741	-0.022755035002774093	9.467182996740986	0.7599999999999998	16.36224599787961
2	main	168	1	1	0.7840696209968883	1	0.7802146760004689	0.770237206001184	-0.00997746999928495	29.762793998816093	4.270919290027232	15.930379003111783
2	main	169	1	1	0.8338360569978249	1	0.8361504329950549	0.8182559149936424	-0.017894518001412507	18.25591499364232	5.01740567495086	33.83605699782488
2	main	170	1	1	0.8175977089995285	1	0.816078595998988	0.8066503399968497	-0.009428256002138369	6.650339996849608	4.773830650008458	17.597708999528507
2	main	171	1	1	0.8011371859975043	1	0.7997785129991826	0.7906937829975504	-0.009084730001632124	9.306217002449602	4.526873694992682	1.1371859975042309
2	main	172	1	1	0.8013959359959699	1	0.8120511500019347	0.7903032329995767	-0.021747917002358008	9.696767000423323	4.530806244945561	1.395935995969877
2	main	173	0	1	0.7839825420014677	0.5750000000000001	0.8002974150003865	0.7768039450020296	-0.023493469998356886	9.696767000423323	1.1350000000000016	1.395935995969877
2	main	174	0	0	NaN	0.55	0.8002974150003865	0.7768039450020296	-0.023493469998356886	9.696767000423323	0.7599999999999998	1.395935995969877
2	main	175	1	1	0.7667406489999848	1	0.7800968599985936	0.7607371729973238	-0.019359687001269776	39.26282700267625	4.010973594993411	33.2593510000152
2	main	176	1	1	0.8176210499950685	1	0.8202711460035061	0.8058820799997193	-0.014389066003786866	5.882079999719236	4.774097454935836	17.621049995068418
2	main	177	0	1	0.8173958600018523	0.5750000000000001	0.8120781319958041	0.8024493990014889	-0.009628732994315214	5.882079999719236	1.1350000000000016	17.621049995068418
2	main	178	1	1	0.8337696870003128	1	0.844505251996452	0.8216238870008965	-0.022881364995555487	21.62388700089646	5.016413155024347	33.7696870003128
2	main	179	1	1	0.8505018659998314	1	0.8642271950011491	0.8384006670021336	-0.025826527999015525	38.40066700213352	5.267275240037415	50.50186599983131
2	main	180	1	1	0.8337393900001189	1	0.8320589549985016	0.8207646500013652	-0.01129430499713635	20.764650001365183	5.015944780059508	33.73939000011883
2	main	181	0	0	NaN	0.55	0.8320589549985016	0.8207646500013652	-0.01129430499713635	20.764650001365183	0.7599999999999998	33.73939000011883
2	main	182	0	1	0.8507272999995621	0.5750000000000001	0.8670510900046793	0.8486109750010655	-0.018440115003613755	20.764650001365183	1.1350000000000016	33.73939000011883
2	main	183	0	0	NaN	0.55	0.8670510900046793	0.8486109750010655	-0.018440115003613755	20.764650001365183	0.7599999999999998	33.73939000011883
2	main	184	1	1	0.7662708729985752	1	0.7720571060053771	0.7533920200003195	-0.018665086005057674	46.60797999968058	4.003932939956721	33.72912700142483
2	main	185	1	1	0.8508058579973294	1	0.8602179709996562	0.8458218029991258	-0.014396168000530452	45.82180299912575	5.27192250996246	50.8058579973294
2	main	186	1	1	0.8511286550055956	1	0.851902971000527	0.8344070930033922	-0.017495877997134812	34.40709300339218	5.276792320071545	51.128655005595604
2	main	187	0	0	NaN	0.5750000000000001	0.851902971000527	0.8344070930033922	-0.017495877997134812	34.40709300339218	1.1350000000000016	51.128655005595604
2	main	188	1	1	0.7675653609985602	1	0.7722850430000108	0.7564834429940674	-0.015801600005943328	43.5165570059326	4.023339849916519	32.434639001439834
2	main	189	1	1	0.7836562669981504	1	0.7921079110019491	0.7822253470003488	-0.009882564001600258	17.774652999651195	4.2647037100302985	16.343733001849657
2	main	190	1	1	0.8840316089990665	1	0.888022851999267	0.873794248997001	-0.014228603002266027	73.79424899700093	5.770305399962817	84.03160899906648
2	main	191	1	1	0.8649395999964327	1	0.868016907996207	0.8355988039984368	-0.03241810399777023	35.598803998436736	5.483869989982631	64.93959999643262
2	main	192	1	1	0.8334447300003376	1	0.8400473930014414	0.8211313979991246	-0.018915995002316777	21.13139799912456	5.011497849953011	33.44473000033754
2	main	193	1	1	0.8336829250038136	1	0.844046067999443	0.8212989930034382	-0.022747074996004812	21.298993003438184	5.015002345060347	33.68292500381354
2	main	194	1	1	0.7998086769948713	1	0.8122046860007686	0.7883697700017365	-0.02383491599903209	11.630229998263575	4.5069787299487505	0.19132300512869627
2	main	195	0	1	0.8178192370032775	0.6000000000000001	0.8162929699974484	0.807506862001901	-0.008786107995547354	11.630229998263575	1.5100000000000016	0.19132300512869627
2	main	196	1	1	0.800627507000172	1	0.8089592520045699	0.7865774399979273	-0.022381812006642576	13.422560002072759	4.519282299914048	0.6275070001720007
2	main	197	1	1	0.7838962769965292	1	0.7920704099960858	0.7698136139952112	-0.0222567960008746	30.186386004788844	4.268313279933645	16.103723003470847
2	main	198	1	1	0.8342118569999002	1	0.8361712750047445	0.8270729290015879	-0.009098346003156621	27.072929001587866	5.0229699850003815	34.21185699990015
2	main	199	1	1	0.8333130210012314	1	0.8400469319967669	0.8200905830017291	-0.019956348995037843	20.09058300172906	5.00956146999466	33.31302100123135
2	main	200	1	1	0.7842255329960608	1	0.8001204920001328	0.7832337149957311	-0.016886777004401665	16.76628500426891	4.273145035001798	15.774467003939252
3	main	201	1	1	0.8006046650043572	1	0.8201117399948998	0.7956136979992152	-0.024498041995684616	4.386302000784825	4.518939970000938	0.6046650043571855
3	main	202	0	1	0.7496736560060526	0.5750000000000001	0.7560716869993485	0.7363786770001752	-0.019693009999173228	4.386302000784825	1.1350000000000016	0.6046650043571855
3	main	203	1	1	0.7837911780006834	1	0.7880235139964498	0.7682788219972281	-0.019744691999221686	31.721178002771964	4.266693849965813	16.208821999316612
3	main	204	1	1	0.8341313450000598	1	0.8402473300011479	0.82197295500373	-0.018274374997417908	21.97295500372998	5.021830900075438	34.13134500005977
3	main	205	1	1	0.8004025449990877	1	0.7960914819996106	0.786760144001164	-0.009331337998446543	13.239855998836036	4.5158353750573585	0.4025449990876506
3	main	206	1	1	0.833567799993034	1	0.8440640879998682	0.8294054859943572	-0.014658602005511057	29.405485994357107	5.013380274902156	33.567799993033944
3	main	207	1	1	0.8513281919949804	1	0.8520624470038456	0.8345486190009979	-0.01751382800284773	34.54861900099782	5.279714904934517	51.3281919949804
3	main	208	1	1	0.7513873069983674	1	0.7603349839992006	0.7488047579972772	-0.011530226001923438	51.19524200272285	3.7806693099244146	48.61269300163262
3	main	209	1	1	0.8332016079948517	1	0.8360729830019409	0.8193030100010219	-0.01676997300091898	19.30301000102186	5.007893725012545	33.201607994851614
3	main	210	1	1	0.7357596000001649	1	0.7640974509995431	0.730928833996586	-0.033168617002957035	69.071166003414	3.546265719994844	64.2403999998351
3	main	211	1	1	0.7840439999999944	1	0.7920290769980056	0.7746759919973556	-0.017353085000650026	25.324008002644447	4.270484005026228	15.956000000005632
3	main	212	1	1	0.8170350979999057	1	0.8161679990007542	0.8058173840036034	-0.010350614997150842	5.817384003603321	4.765324570032826	17.03509799990566
3	main	213	0	0	NaN	0.55	0.8161679990007542	0.8058173840036034	-0.010350614997150842	5.817384003603321	0.7599999999999998	17.03509799990566
3	main	214	1	1	0.8343478199967649	1	0.84406986200338	0.8241196349990787	-0.01995022700430127	24.119634999078656	5.025010224924481	34.34781999676484
3	main	215	1	1	0.8006372220042977	1	0.8041076259978581	0.7924406399979489	-0.01166698599990923	7.559360002051152	4.519342720011773	0.6372220042976107
3	main	216	1	1	0.8174911149981199	1	0.8402030470024329	0.816390384999977	-0.02381266200245591	16.390384999976916	4.772105724948924	17.49111499811984
3	main	217	0	0	NaN	0.5750000000000001	0.8402030470024329	0.816390384999977	-0.02381266200245591	16.390384999976916	1.1350000000000016	17.49111499811984
3	main	218	0	0	NaN	0.6000000000000001	0.8402030470024329	0.816390384999977	-0.02381266200245591	16.390384999976916	1.5100000000000016	17.49111499811984
3	main	219	1	1	0.8330293580002035	1	0.8440416730009019	0.8259417660010513	-0.018099906999850646	25.94176600105125	5.005298289977654	33.02935800020346
3	main	220	0	1	0.8512365069982479	0.625	0.8560731920006219	0.8412920569971902	-0.0147811350034317	25.94176600105125	1.8849999999999998	33.02935800020346
3	main	221	1	1	0.8503222430008464	1	0.8641581959964242	0.8383883719943697	-0.02576982400205452	38.38837199436962	5.264697969940025	50.32224300084631
3	main	222	1	1	0.866532431995438	1	0.8840705449983943	0.8585492950005573	-0.025521249997837003	58.54929500055728	5.507856595029589	66.5324319954379
3	main	223	1	1	0.8002009900010307	1	0.8120511619999888	0.7973872519942233	-0.014663910005765501	2.6127480057767105	4.512875169964682	0.20099000103068754
3	main	224	1	1	0.816589711997949	1	0.8360505879973061	0.8117412259962293	-0.024309362001076806	11.741225996229288	4.758681579985714	16.58971199794901
3	main	225	1	1	0.8675353250000626	1	0.8640664539998397	0.8500976579962298	-0.013968796003609896	50.097657996229785	5.5225884999142725	67.53532500006254
3	main	226	1	1	0.8163869369964232	1	0.8401078070019139	0.8136692650004989	-0.026438542001415044	13.66926500049881	4.755661929955531	16.38693699642313
3	main	227	1	1	0.8699384490028024	1	0.8880167309980607	0.8632545829968876	-0.024762148001173045	63.25458299688758	5.558856624955078	69.93844900280233
3	main	228	1	1	0.7985281230066903	1	0.8120400440020603	0.7929169930066564	-0.0191230509954039	7.083006993343632	4.4877180850724105	1.4718769933097509
3	main	229	1	1	0.8002396849988145	1	0.8161755300025106	0.7952718250016915	-0.020903705000819173	4.728174998308576	4.51339018007071	0.23968499881443783
3	main	230	1	1	0.8671202410041587	1	0.8680621629973757	0.8520069080041139	-0.01605525499326177	52.006908004113896	5.516674165080767	67.1202410041587
3	main	231	1	1	0.8172611019981559	1	0.8201180579999345	0.8043123640018166	-0.01580569399811793	4.31236400181656	4.768779505064012	17.261101998155894
3	main	232	1	1	0.8504835150015424	1	0.8760606260038912	0.8501855720023741	-0.025875054001517128	50.18557200237406	5.267044225072604	50.48351500154236
3	main	233	0	1	0.7828500359973987	0.6000000000000001	0.8040029190015048	0.7810792019954533	-0.022923717006051447	50.18557200237406	1.5100000000000016	50.48351500154236
3	main	234	0	1	0.7674160120004672	0.5750000000000001	0.7800873579981271	0.7657023600040702	-0.014384997994056903	50.18557200237406	1.1350000000000016	50.48351500154236
3	main	235	0	0	NaN	0.55	0.7800873579981271	0.7657023600040702	-0.014384997994056903	50.18557200237406	0.7599999999999998	50.48351500154236
3	main	236	1	1	0.851269400001911	1	0.8480493880051654	0.8354023080028128	-0.012647080002352595	35.402308002812745	5.278825899984222	51.26940000191094
3	main	237	0	1	0.7851699509992613	0.5750000000000001	0.7880672239989508	0.77002325799549	-0.01804396600346081	35.402308002812745	1.1350000000000016	51.26940000191094
3	main	238	1	1	0.7999041349976324	1	0.8160860589996446	0.7969064749995596	-0.019179584000085015	3.093525000440467	4.508357844968268	0.09586500236768991
3	main	239	1	1	0.784250595002959	1	0.8000895569930435	0.7763508139978512	-0.023738742995192297	23.649186002148824	4.273627360051032	15.749404997041028
3	main	240	1	1	0.8339606899971841	1	0.8560758160019759	0.8329897570001776	-0.023086059001798276	32.98975700017759	5.01921749502595	33.96068999718405
3	main	241	1	1	0.8015838870051084	1	0.8040754110043054	0.7838643100039917	-0.020211101000313647	16.135689996008338	4.533544855001091	1.5838870051083642
3	main	242	1	1	0.7505337900001905	1	0.7600659279996762	0.7368890600046143	-0.02317686799506191	63.11093999538575	3.767797900070727	49.46620999980955
3	main	243	1	1	0.7656708549984614	1	0.7721593469977961	0.7586656170024071	-0.013493729995389003	41.334382997592954	3.9949271050479727	34.329145001538606
3	main	244	0	1	0.8001639799986151	0.55	0.8040876730010496	0.7885018009983469	-0.015585872002702672	41.334382997592954	0.7599999999999998	34.329145001538606
3	main	245	1	1	0.7839990350039443	1	0.8040534549945733	0.7820597879981506	-0.02199366699642269	17.940212001849474	4.269787975061044	16.000964996055743
3	main	246	0	0	NaN	0.5250000000000001	0.8040534549945733	0.7820597879981506	-0.02199366699642269	17.940212001849474	0.38500000000000156	16.000964996055743
3	main	247	1	1	0.8831410619968665	1	0.8760331969970139	0.8677838849980617	-0.00824931199895218	67.78388499806165	5.756979174946318	83.14106199686644
3	main	248	0	0	NaN	0.55	0.8760331969970139	0.8677838849980617	-0.00824931199895218	67.78388499806165	0.7599999999999998	83.14106199686644
3	main	249	1	1	0.8001891000021715	1	0.8215878810005961	0.7972535380031331	-0.024334342997462954	2.7464619968669	4.512619794984639	0.1891000021714273
3	main	250	1	1	0.8835297020050348	1	0.8960418150018086	0.8712703580022207	-0.024771456999587826	71.2703580022207	5.762708919972065	83.52970200503474
3	main	251	1	1	0.8343128129999968	1	0.8482275029964512	0.8322625200016773	-0.01596498299477389	32.26252000167729	5.024500645047519	34.31281299999678
3	main	252	0	0	NaN	0.5750000000000001	0.8482275029964512	0.8322625200016773	-0.01596498299477389	32.26252000167729	1.1350000000000016	34.31281299999678
3	main	253	0	1	0.7344498809979996	0.6000000000000001	0.748058523000509	0.7273564809947857	-0.020702042005723342	32.26252000167729	1.5100000000000016	34.31281299999678
3	main	254	1	1	0.8330423329971381	1	0.8451293849939248	0.8274889929962228	-0.017640391997701954	27.488992996222763	5.0054948799859265	33.042332997138104
3	main	255	1	1	0.8663447400031146	1	0.8840856430033455	0.8614956780002103	-0.02258996500313515	61.495678000210276	5.50503377500514	66.34474000311452
3	main	256	1	1	0.8343449000021792	1	0.8360668780005653	0.8240506020010798	-0.012016275999485515	24.05060200107978	5.024989450028224	34.34490000217916
3	main	257	1	1	0.8512675799938734	1	0.8522430099983467	0.8386149769939948	-0.013628033004351892	38.614976993994745	5.278882509917603	51.267579993873326
3	main	258	1	1	0.800304912001593	1	0.8000727719991119	0.7843591370037757	-0.01571363499533618	15.640862996224358	4.5144371500625855	0.30491200159299403
3	main	259	1	1	0.7833778630010784	1	0.7889017320048879	0.7806166590016801	-0.008285073003207799	19.38334099831995	4.260515829953656	16.622136998921675
3	main	260	1	1	0.8173645410060999	1	0.8241740360026597	0.8036506050048047	-0.02052343099785503	3.65060500480463	4.770282385104801	17.364541006099856
3	main	261	0	1	0.8173691060001147	0.5750000000000001	0.8401133950028452	0.8163274430044112	-0.02378595199843403	3.65060500480463	1.1350000000000016	17.364541006099856
3	main	262	1	1	0.8338915360000101	1	0.8360550330035039	0.8250565880007343	-0.010998445002769586	25.056588000734294	5.018230419953179	33.89153600001005
3	main	263	1	1	0.8005984870032989	1	0.8040402340047876	0.7876554660033435	-0.016384768001444172	12.344533996656581	4.5188478549587305	0.5984870032988976
3	main	264	1	1	0.7833600070007378	1	0.7959995599958347	0.7808252199974959	-0.015174339998338837	19.174780002504164	4.260265059999947	16.63999299926222
3	main	265	0	0	NaN	0.55	0.7959995599958347	0.7808252199974959	-0.015174339998338837	19.174780002504164	0.7599999999999998	16.63999299926222
3	main	266	1	1	0.8671173499969882	1	0.8720494099979987	0.8582065829978092	-0.013842827000189573	58.20658299780912	5.516621304957662	67.11734999698815
3	main	267	0	1	0.8006543739975314	0.5750000000000001	0.8080870220001088	0.789385456002492	-0.018701565997616854	58.20658299780912	1.1350000000000016	67.11734999698815
3	main	268	1	1	0.7678744719960378	1	0.7796598650020314	0.7655725000004168	-0.014087365001614671	34.427499999583276	4.027975179995119	32.12552800396229
3	main	269	1	1	0.7830898480024189	1	0.7959854689979693	0.7802849470026558	-0.015700521995313466	19.715052997344216	4.256118475093681	16.910151997581167
3	main	270	1	1	0.8339305180052179	1	0.8401207599963527	0.8204484160014545	-0.019672343994898256	20.44841600145442	5.018822950003377	33.93051800521785
3	main	271	1	1	0.8168154960003449	1	0.832073532998038	0.8136246860012761	-0.01844884699676186	13.624686001276087	4.762100395016896	16.815496000344822
3	main	272	1	1	0.8676463500014506	1	0.8720662510022521	0.8535533510003006	-0.018512900001951493	53.553351000300566	5.524537599956384	67.64635000145059
3	main	273	0	0	NaN	0.55	0.8720662510022521	0.8535533510003006	-0.018512900001951493	53.553351000300566	0.7599999999999998	67.64635000145059
3	main	274	0	1	0.7835016070021084	0.5750000000000001	0.7920603650054545	0.7795144820047426	-0.01254588300071191	53.553351000300566	1.1350000000000016	67.64635000145059
3	main	275	1	1	0.7996921349986224	1	0.8080934749959852	0.7966964949955582	-0.011396980000426993	3.3035050044418757	4.505246769984078	0.307865001377694
3	main	276	1	1	0.8510404800035758	1	0.8599549610007671	0.8418356830006815	-0.018119278000085615	41.83568300068141	5.2754656300364875	51.04048000357575
3	main	277	0	0	NaN	0.55	0.8599549610007671	0.8418356830006815	-0.018119278000085615	41.83568300068141	0.7599999999999998	51.04048000357575
3	main	278	1	1	0.816629640001338	1	0.8240825059983763	0.81331620200217	-0.010766303996206261	13.316202002169986	4.759307695055904	16.629640001337933
3	main	279	1	1	0.866862641996704	1	0.875953369999479	0.8527305899988278	-0.023222780000651255	52.73058999882774	5.512802469927701	66.862641996704
3	main	280	1	1	0.8503112480029813	1	0.8721493689954514	0.8472725739993621	-0.024876794996089302	47.272573999362024	5.264450409993296	50.31124800298126
3	main	281	0	0	NaN	0.5750000000000001	0.8721493689954514	0.8472725739993621	-0.024876794996089302	47.272573999362024	1.1350000000000016	50.31124800298126
3	main	282	0	1	0.7672223609988578	0.6000000000000001	0.7720629200048279	0.7641715200006729	-0.007891400004155003	47.272573999362024	1.5100000000000016	50.31124800298126
3	main	283	0	1	0.8171556550005334	0.5750000000000001	0.8200416539984872	0.8043567429995164	-0.015684910998970736	47.272573999362024	1.1350000000000016	50.31124800298126
3	main	284	1	1	0.8506522079987917	1	0.8610433299982105	0.8468391409987817	-0.01420418899942888	46.839140998781616	5.2695737499723325	50.65220799879167
3	main	285	1	1	0.8340952399958041	1	0.8521707850013627	0.8278995829969062	-0.024271202004456427	27.899582996906204	5.0212955499935195	34.09523999580411
3	main	286	1	1	0.8825275510025676	1	0.904042975998891	0.8800219810000272	-0.024020994998863898	80.02198100002711	5.747777754984563	82.52755100256759
3	main	287	0	0	NaN	0.55	0.904042975998891	0.8800219810000272	-0.024020994998863898	80.02198100002711	0.7599999999999998	82.52755100256759
3	main	288	1	1	0.7670517209990066	1	0.7762746250009513	0.7549002809973899	-0.02137434400356142	45.099719002610115	4.01558560002537	32.948279000993395
3	main	289	1	1	0.8346834850017331	1	0.8479676729984931	0.8256058650003979	-0.022361807998095173	25.605865000397856	5.03004282992857	34.68348500173302
3	main	290	1	1	0.8509314800030552	1	0.8520427019975614	0.8345034279991523	-0.017539273998409044	34.503427999152294	5.2737786399645845	50.93148000305514
3	main	291	1	1	0.8168901399985771	1	0.8320738749971497	0.8096595780007192	-0.022414296996430494	9.659578000719149	4.76321226997039	16.890139998577027
3	main	292	1	1	0.8838850230022217	1	0.8920724499985226	0.878802432998782	-0.01327001699974062	78.80243299878198	5.768088954971754	83.88502300222167
3	main	293	1	1	0.8844694809959037	1	0.8960337140015326	0.8759691149971331	-0.020064599004399497	75.9691149971331	5.776874335022294	84.46948099590368
3	main	294	1	1	0.7999467250047019	1	0.8160887049962184	0.7919878570028231	-0.02410084799339529	8.012142997176896	4.5087304450114605	0.05327499529816926
3	main	295	0	0	NaN	0.5750000000000001	0.8160887049962184	0.7919878570028231	-0.02410084799339529	8.012142997176896	1.1350000000000016	0.05327499529816926
3	main	296	1	1	0.8172315819974756	1	0.820054085997981	0.8025676690012915	-0.017486416996689513	2.5676690012914616	4.768272985018266	17.231581997475544
3	main	297	1	1	0.8340077940010815	1	0.8400473660003627	0.8220512859988958	-0.017996080001466908	22.05128599889572	5.01998505995085	34.00779400108145
3	main	298	1	1	0.9000940879996051	1	0.9133463429971016	0.8972113849958987	-0.016134958001202904	97.21138499589865	6.011232999915373	100.09408799960507
3	main	299	1	1	0.833273463002115	1	0.8320549659983953	0.8232806829983019	-0.008774283000093419	23.280682998301884	5.008961695055186	33.27346300211498
3	main	300	1	1	0.7668676070024958	1	0.7882729049961199	0.7639017870023963	-0.0243711179937236	36.09821299760374	4.012804405099596	33.132392997504255
4	main	301	1	1	0.7828707650041906	1	0.7922233479985152	0.7768574630026706	-0.01536588499584468	23.142536997329486	4.252853125069814	17.129234995809426
4	main	302	0	1	0.8185179779975442	0.6000000000000001	0.8200477819991647	0.8072698799951468	-0.01277790200401796	23.142536997329486	1.5100000000000016	17.129234995809426
4	main	303	1	1	0.8340698929969221	1	0.8522153700032504	0.8316176049993373	-0.020597765003913082	31.617604999337303	5.020838274938578	34.06989299692209
4	main	304	1	1	0.7672401449963218	1	0.7842329170016455	0.7642750519953552	-0.019957865006290376	35.72494800464487	4.018392924988584	32.75985500367828
4	main	305	1	1	0.816977707996557	1	0.8404377569968347	0.8164192179974634	-0.02401853899937123	16.419217997463377	4.76444054500258	16.97770799655696
4	main	306	1	1	0.8498963029996958	1	0.8480520129960496	0.8364538620007806	-0.011598150995268952	36.4538620007806	5.258313175034127	49.89630299969572
4	main	307	1	1	0.8176636280040839	1	0.8281494830007432	0.8159614760006662	-0.01218800700007705	15.961476000666108	4.77481296998827	17.663628004083833
4	main	308	1	1	0.8177875379988109	1	0.8240216990016052	0.8118182020043605	-0.012203496997244656	11.818202004360456	4.77667542996438	17.787537998810834
4	main	309	1	1	0.7994914679948124	1	0.8080576300053508	0.7921392589996685	-0.015918371005682275	7.860741000331517	4.502223294946598	0.5085320051876341
4	main	310	1	1	0.8506906129987328	1	0.8603253879991826	0.843461402997491	-0.016863985001691617	43.46140299749091	5.270153394920053	50.69061299873279
4	main	311	1	1	0.8004700320016127	1	0.8122335369989742	0.7925414019991877	-0.019692134999786504	7.458598000812389	4.516845550022262	0.47003200161266356
4	main	312	1	1	0.8332605400064494	1	0.8440481779980473	0.8177561810007319	-0.026291996997315437	17.756181000731843	5.008774150080862	33.2605400064494
4	main	313	0	0	NaN	0.5750000000000001	0.8440481779980473	0.8177561810007319	-0.026291996997315437	17.756181000731843	1.1350000000000016	33.2605400064494
4	main	314	1	1	0.8011901520003448	1	0.7921837829999276	0.7839072969945846	-0.008276486005343031	16.09270300541543	4.52764366000134	1.1901520003447796
4	main	315	1	1	0.817462560000422	1	0.8320273200006341	0.8102743229974294	-0.021752997003204655	10.274322997429364	4.771797249957453	17.462560000421902
4	main	316	1	1	0.8174503879999975	1	0.8160590099942056	0.8007319549942622	-0.015327054999943357	0.7319549942621517	4.771621749930782	17.45038799999743
4	main	317	0	1	0.8340929969999706	0.6000000000000001	0.8401940050025587	0.826916899997741	-0.013277105004817713	0.7319549942621517	1.5100000000000016	17.45038799999743
4	main	318	0	1	0.7511946199956583	0.5750000000000001	0.7680129300060798	0.7485532290011179	-0.01945970100496197	0.7319549942621517	1.1350000000000016	17.45038799999743
4	main	319	1	1	0.8169437449978432	1	0.8201975830015726	0.8039967529985006	-0.016200830003072042	3.9967529985005523	4.764019899955892	16.943744997843126
4	main	320	0	0	NaN	0.55	0.8201975830015726	0.8039967529985006	-0.016200830003072042	3.9967529985005523	0.7599999999999998	16.943744997843126
4	main	321	1	1	0.8163431239954662	1	0.8200924740012852	0.8093584279995412	-0.010734046001743991	9.358427999541119	4.755007659985276	16.343123995466115
4	main	322	1	1	0.8003430570024648	1	0.8081052429988631	0.7906293220003136	-0.017475920998549554	9.370677999686494	4.514971840069629	0.3430570024647306
4	main	323	1	1	0.8505547059976379	1	0.85290297800384	0.8424051370020607	-0.010497841001779307	42.40513700206061	5.268139705001667	50.554705997637896
4	main	324	1	1	0.868065401999047	1	0.8803238179971231	0.857793365001271	-0.0225304529958521	57.79336500127097	5.530773625030415	68.06540199904698
4	main	325	1	1	0.834461183003441	1	0.8481148830032907	0.8294125940010417	-0.018702289002249017	29.412594001041683	5.026702600041753	34.46118300344092
4	main	326	1	1	0.8506032599980244	1	0.8520574080030201	0.8398333080040175	-0.012224099999002647	39.83330800401741	5.2688747499976305	50.6032599980244
4	main	327	1	1	0.7668477979968884	1	0.7712742869989597	0.7540921549953055	-0.01718213200365426	45.90784500469458	4.012586529968539	33.15220200311164
4	main	328	1	1	0.8025513859975035	1	0.8080281549991923	0.7901007769978605	-0.017927378001331817	9.899223002139523	4.548076060016465	2.551385997503486
4	main	329	1	1	0.7675918719978654	1	0.7720598699961556	0.7595355629964615	-0.01252430699969409	40.46443700353852	4.023739929941948	32.40812800213466
4	main	330	1	1	0.784590308998304	1	0.7921529279992683	0.7815829050014145	-0.010570022997853812	18.41709499858557	4.278582235017675	15.40969100169609
4	main	331	1	1	0.816637133997574	1	0.8280802170047536	0.8097405770022306	-0.018339640002523083	9.740577002230522	4.759421710002934	16.63713399757394
4	main	332	1	1	0.8659379919990897	1	0.8880531760005397	0.8634929390027537	-0.024560236997785978	63.49293900275366	5.49893039496761	65.93799199908968
4	main	333	0	1	0.716628194997611	0.5750000000000001	0.7162518280019867	0.705680544997449	-0.01057128300453769	63.49293900275366	1.1350000000000016	65.93799199908968
4	main	334	0	1	0.7504195799992885	0.55	0.7520489920061664	0.7385051680030301	-0.013543824003136251	63.49293900275366	0.7599999999999998	65.93799199908968
4	main	335	0	0	NaN	0.5250000000000001	0.7520489920061664	0.7385051680030301	-0.013543824003136251	63.49293900275366	0.38500000000000156	65.93799199908968
4	main	336	1	1	0.7670741659967462	1	0.7802743499996723	0.7640408119987114	-0.016233538000960834	35.95918800128861	4.015936329958786	32.92583400325388
4	main	337	0	0	NaN	0.55	0.7802743499996723	0.7640408119987114	-0.016233538000960834	35.95918800128861	0.7599999999999998	32.92583400325388
4	main	338	1	1	0.8170248819951667	1	0.8362521689996356	0.8121506789975683	-0.024101490002067294	12.150678997568276	4.765234945005213	17.02488199516661
4	main	339	1	1	0.8004687279972131	1	0.8080761800010805	0.7904935330006992	-0.017582647000381257	9.5064669993008	4.51690019501053	0.468727997213092
4	main	340	1	1	0.8830607120034983	1	0.8879145789978793	0.8731691549983225	-0.014745423999556806	73.16915499832244	5.755771300025808	83.0607120034983
4	main	341	1	1	0.9332889839934069	1	0.9320987640021485	0.921351227996638	-0.010747536005510483	121.351227996638	6.509194930001977	133.28898399340682
4	main	342	1	1	0.8007563079954707	1	0.823947657001554	0.8004698709992226	-0.023477786002331413	0.4698709992225769	4.521184989969479	0.756307995470662
4	main	343	1	1	0.8346238189988071	1	0.8409543589950772	0.8304770559989265	-0.010477302996150684	30.477055998926474	5.029144105026498	34.62381899880707
4	main	344	0	1	0.7164869060070487	0.5750000000000001	0.7360320200023125	0.7115458450061851	-0.024486174996127374	30.477055998926474	1.1350000000000016	34.62381899880707
4	main	345	1	1	0.8174611020003795	1	0.8161968500062358	0.8042068900031154	-0.011989960003120359	4.20689000311536	4.771760740002501	17.461102000379427
4	main	346	0	1	0.783595257998968	0.55	0.7880801550054457	0.773672554998484	-0.01440760000696173	4.20689000311536	0.7599999999999998	17.461102000379427
4	main	347	1	1	0.8502670000016224	1	0.8680449629973737	0.8450783680018503	-0.022966594995523337	45.07836800185028	5.263789495072851	50.26700000162232
4	main	348	0	0	NaN	0.5250000000000001	0.8680449629973737	0.8450783680018503	-0.022966594995523337	45.07836800185028	0.38500000000000156	50.26700000162232
4	main	349	1	1	0.7840972519989009	1	0.7880637050038786	0.768265587001224	-0.01979811800265452	31.734412998775994	4.271320869954943	15.902748001099143
4	main	350	1	1	0.7673697620048188	1	0.7809638099934091	0.7603535279995413	-0.02061028199386783	39.646472000458786	4.0204041700760715	32.630237995181275
4	main	351	1	1	0.7666861289981171	1	0.7800858429982327	0.7590771449977183	-0.021008698000514414	40.922855002281764	4.01015273502504	33.31387100188299
4	main	352	0	1	0.7841658819961594	0.55	0.8080435060037416	0.7689121160001378	-0.03913139000360388	40.922855002281764	0.7599999999999998	33.31387100188299
4	main	353	0	0	NaN	0.5250000000000001	0.8080435060037416	0.7689121160001378	-0.03913139000360388	40.922855002281764	0.38500000000000156	33.31387100188299
4	main	354	1	1	0.8000867340015247	1	0.8080989040026907	0.7972807180049131	-0.010818185997777618	2.719281995086975	4.511167404996522	0.08673400152470201
4	main	355	1	1	0.8350713600011659	1	0.852061113997479	0.829468429001281	-0.02259268499619793	29.468429001280995	5.035859904999379	35.07136000116584
4	main	356	1	1	0.7840430400028708	1	0.8042204939993098	0.7812384459975874	-0.022982048001722433	18.761554002412637	4.270437670018291	15.956959997129205
4	main	357	1	1	0.7999616699962644	1	0.8161445310033741	0.7949598129998776	-0.021184718003496528	5.040187000122431	4.5092895249379215	0.03833000373565376
4	main	358	1	1	0.816942329001904	1	0.8240710879981634	0.8014203220009222	-0.02265076599724125	1.4203220009221251	4.764005530012364	16.942329001903957
4	main	359	1	1	0.8507233299969812	1	0.8520531940012006	0.841191635998257	-0.010861558002943639	41.19163599825693	5.27071743992361	50.72332999698115
4	main	360	1	1	0.8347262120005325	1	0.8441495799997938	0.824957122997148	-0.019192457002645824	24.95712299714792	5.0306886999876586	34.7262120005325
4	main	361	0	1	0.8170720130001428	0.55	0.8133292320053442	0.800602435003384	-0.012726797001960222	24.95712299714792	0.7599999999999998	34.7262120005325
4	main	362	1	1	0.7504910050047329	1	0.7510068400006276	0.7379596440005116	-0.013047196000115946	62.040355999488426	3.7671529300839754	49.50899499526717
4	main	363	1	1	0.7849174329967354	1	0.8081714370055124	0.7832094309997046	-0.02496200600580778	16.790569000295406	4.283540364956716	15.082567003264602
4	main	364	1	1	0.7512751620015479	1	0.7601802049975959	0.7501044849996106	-0.010075719997985289	49.895515000389466	3.7789963299635563	48.72483799845217
4	main	365	0	1	0.7827123930037487	0.5250000000000001	0.7800288549988181	0.7688975550045143	-0.011131299994303845	49.895515000389466	0.38500000000000156	48.72483799845217
4	main	366	1	1	0.7656585950026056	1	0.772066941994126	0.749674459999369	-0.022392481994756963	50.32554000063105	3.9946727200711027	34.34140499739446
4	main	367	0	0	NaN	0.5	0.772066941994126	0.749674459999369	-0.022392481994756963	50.32554000063105	0.009999999999999787	34.34140499739446
4	main	368	1	1	0.8167543750023469	1	0.8282567499991274	0.8051128650040482	-0.023143884995079134	5.112865004048173	4.761126054979977	16.75437500234689
4	main	369	1	1	0.8681139730033465	1	0.8760946979964501	0.8549718249996658	-0.02112287299678428	54.9718249996658	5.531495394968951	68.11397300334643
4	main	370	1	1	0.7836920120025752	1	0.7962780669986387	0.7733680450037355	-0.022910021994903218	26.631954996264582	4.265250444984995	16.30798799742483
4	main	371	1	1	0.8003786919944105	1	0.8122922499969718	0.7896521789953113	-0.022640071001660544	10.347821004688784	4.515469929972605	0.37869199441042944
4	main	372	1	1	0.7673170439957175	1	0.7735342550004134	0.7523815319946152	-0.02115272300579818	47.61846800538483	4.019622399898944	32.6829560042825
4	main	373	0	0	NaN	0.5250000000000001	0.7735342550004134	0.7523815319946152	-0.02115272300579818	47.61846800538483	0.38500000000000156	32.6829560042825
4	main	374	0	1	0.78472026399686	0.55	0.7921134739954141	0.7756716839940054	-0.016441790001408663	47.61846800538483	0.7599999999999998	32.6829560042825
4	main	375	1	1	0.8348196630031453	1	0.8480589889950352	0.8257358019982348	-0.02232318699680036	25.735801998234777	5.032085349992267	34.81966300314521
4	main	376	1	1	0.7998792029975448	1	0.8001504619969637	0.7882229479946545	-0.01192751400230918	11.777052005345512	4.508052474991709	0.12079700245526404
4	main	377	0	0	NaN	0.5250000000000001	0.8001504619969637	0.7882229479946545	-0.01192751400230918	11.777052005345512	0.38500000000000156	0.12079700245526404
4	main	378	1	1	0.785128782998072	1	0.7922858059973805	0.7768526279978687	-0.015433177999511827	23.14737200213135	4.286721069982159	14.871217001928061
4	main	379	1	1	0.833941174998472	1	0.840258251002524	0.8310046300030081	-0.009253620999515988	31.004630003008018	5.0188994800535145	33.941174998471936
4	main	380	1	1	0.7839356839976972	1	0.8040475060042809	0.781706526002381	-0.02234098000189988	18.293473997619046	4.268891499957826	16.064316002302846
4	main	381	0	0	NaN	0.55	0.8040475060042809	0.781706526002381	-0.02234098000189988	18.293473997619046	0.7599999999999998	16.064316002302846
4	main	382	0	1	0.7842073760039057	0.5750000000000001	0.7923004999975092	0.7756799859998864	-0.016620513997622766	18.293473997619046	1.1350000000000016	16.064316002302846
4	main	383	0	0	NaN	0.55	0.7923004999975092	0.7756799859998864	-0.016620513997622766	18.293473997619046	0.7599999999999998	16.064316002302846
4	main	384	1	1	0.8683691819969681	1	0.8720347179987584	0.85374460699677	-0.018290111001988407	53.744606996769974	5.535329800038889	68.36918199696807
4	main	385	1	1	0.8512411029951181	1	0.8690619150002021	0.8444864699995378	-0.02457544500066433	44.48646999953776	5.278398924963549	51.241102995118084
4	main	386	1	1	0.7838303800017457	1	0.8044217419956112	0.7793008139997255	-0.025120927995885722	20.699186000274537	4.267240629995067	16.16961999825439
4	main	387	0	1	0.8164783579995856	0.5750000000000001	0.8200742900007754	0.8009057300005225	-0.01916856000025291	20.699186000274537	1.1350000000000016	16.16961999825439
4	main	388	1	1	0.8172119399969233	1	0.8279302039954928	0.8085573009957443	-0.019372902999748476	8.557300995744255	4.76798504492559	17.211939996923277
4	main	389	1	1	0.8329003839971847	1	0.8440586630022153	0.8213920569978654	-0.022666606004349887	21.392056997865396	5.00336595996283	32.90038399718465
4	main	390	1	1	0.8501269390035304	1	0.852135064000322	0.83489428699977	-0.017240777000552043	34.89428699976993	5.261769655042153	50.12693900353038
4	main	391	1	1	0.7835218769978383	1	0.7840466630004812	0.7696192410003277	-0.014427422000153456	30.380758999672295	4.262688819906325	16.47812300216178
4	main	392	1	1	0.7501093169994419	1	0.7681445030029863	0.7490152280006441	-0.019129275002342183	50.984771999355914	3.7614891699538564	49.8906830005581
4	main	393	1	1	0.8009240699975635	1	0.8202713720020256	0.7948927899997216	-0.02537858200230403	5.107210000278473	4.5236506300332255	0.9240699975634481
4	main	394	1	1	0.8003841190002277	1	0.8080835789951379	0.7854244959962671	-0.022659082998870872	14.575504003732975	4.515627189973893	0.3841190002276118
4	main	395	0	0	NaN	0.55	0.8080835789951379	0.7854244959962671	-0.022659082998870872	14.575504003732975	0.7599999999999998	0.3841190002276118
4	main	396	1	1	0.8328772870008834	1	0.8363203500048257	0.823218451005232	-0.013101898999593686	23.218451005232012	5.003024245050037	32.87728700088333
4	main	397	1	1	0.7846284290062613	1	0.7991373600016232	0.7796566840042942	-0.019480675997328945	20.343315995705822	4.279222585026	15.371570993738759
4	main	398	1	1	0.8501827599975513	1	0.843969036002818	0.8337872519987286	-0.010181784004089423	33.787251998728564	5.2626073900298795	50.18275999755129
4	main	399	1	1	0.8013198219996411	1	0.8082063390029361	0.7986079519978375	-0.00959838700509863	1.392048002162527	4.529585979978728	1.319821999641091
4	main	400	1	1	0.818031542999961	1	0.8281834500012337	0.815352477999113	-0.012830972002120689	15.35247799911299	4.780264119979401	18.031542999960905
