Block	TrialType	Trial	Signal	Response	RT	SSD	keyDuration	keyDuration_startSyched	keyRT	feedback_ms	vert	feedback_synched
1	practice	1	1	1	0.8176465850010572	1	0.8280854830009048	0.8011442450006143	-0.02694123800029047	1.1442450006142746	4.774492405029159	17.646585001057204
1	practice	2	0	0	NaN	0.5	0.8280854830009048	0.8011442450006143	-0.02694123800029047	1.1442450006142746	0.009999999999999787	17.646585001057204
1	practice	3	0	1	0.7669329400014249	0.525	0.7720424799990724	0.7527597260013863	-0.019282753997686086	1.1442450006142746	0.3849999999999998	17.646585001057204
1	main	1	1	1	0.8344144970033085	1	0.8482478420010011	0.829448880002019	-0.018798961998982122	29.448880002018953	5.026014355041989	34.414497003308455
1	main	2	0	0	NaN	0.5	0.8482478420010011	0.829448880002019	-0.018798961998982122	29.448880002018953	0.009999999999999787	34.414497003308455
1	main	3	1	1	0.7835102280005231	1	0.7880922580006882	0.776947279999149	-0.01114497800153913	23.05272000085101	4.262476150013535	16.489771999476986
1	main	4	1	1	0.835354148002807	1	0.8400961549996282	0.8231866500027536	-0.016909504996874603	23.186650002753552	5.040109150047792	35.35414800280701
1	main	5	1	1	0.799971305001236	1	0.8200791700000991	0.795112251998944	-0.024966918001155136	4.887748001056069	4.509360205008997	0.028694998764011714
1	main	6	1	1	0.8500384019971534	1	0.8682037290018343	0.8491296319989488	-0.019074097002885537	49.12963199894871	5.260068024961365	50.03840199715337
1	main	7	1	1	0.8169222329997865	1	0.8242457619999186	0.8096751749981195	-0.01457058700179914	9.675174998119429	4.763630469967902	16.92223299978646
1	main	8	0	0	NaN	0.525	0.8242457619999186	0.8096751749981195	-0.01457058700179914	9.675174998119429	0.3849999999999998	16.92223299978646
1	main	9	1	1	0.8347178000003623	1	0.8280809279967798	0.8186885449977126	-0.009392382999067195	18.688544997712555	5.030555695009534	34.71780000036229
1	main	10	1	1	0.7667599160013197	1	0.7800893200001155	0.7560511750016303	-0.024038144998485222	43.948824998369716	4.011253059977898	33.24008399868039
1	main	11	0	1	0.7673769279972475	0.55	0.7760992700023053	0.7620589239995752	-0.014040346002730075	43.948824998369716	0.7599999999999998	33.24008399868039
1	main	12	1	1	0.8164348760001303	1	0.8240405900032783	0.805987563002418	-0.01805302700086031	5.987563002417984	4.756348720018432	16.434876000130274
1	main	13	0	0	NaN	0.525	0.8240405900032783	0.805987563002418	-0.01805302700086031	5.987563002417984	0.3849999999999998	16.434876000130274
1	main	14	1	1	0.7832874970008561	1	0.8039871580003819	0.7809019349988375	-0.023085223001544364	19.09806500116251	4.259185464977927	16.71250299914395
1	main	15	1	1	0.9499960370012559	1	0.9600854179989255	0.9470726399995328	-0.01301277799939271	147.07263999953278	6.759714475008659	149.99603700125584
1	main	16	0	0	NaN	0.55	0.9600854179989255	0.9470726399995328	-0.01301277799939271	147.07263999953278	0.7599999999999998	149.99603700125584
1	main	17	1	1	0.8010305930001778	1	0.7962686080027197	0.7882765050017042	-0.007992103001015494	11.723494998295836	4.525253020017553	1.0305930001777153
1	main	18	1	1	0.7998460569979216	1	0.8122495989991876	0.7904951269993035	-0.021754471999884117	9.504873000696579	4.507483555005601	0.15394300207849376
1	main	19	1	1	0.8344457329985744	1	0.8362356869984069	0.8235579899992445	-0.012677696999162436	23.557989999244413	5.026352020011254	34.44573299857434
1	main	20	1	1	0.7512925150003866	1	0.7482706289993075	0.7389355170016643	-0.009335111997643253	61.06448299833578	3.77917820503877	48.70748499961341
1	main	21	1	1	0.8002863529982278	1	0.7960937839998223	0.7871670290005568	-0.00892675499926554	12.83297099944325	4.514088145022251	0.28635299822776794
1	main	22	1	1	0.8515320430014981	1	0.8521104499996	0.8404609280005388	-0.011649521999061108	40.4609280005388	5.282765395020542	51.53204300149805
1	main	23	1	1	0.7832656249993306	1	0.7962743749994843	0.7801368779983022	-0.016137497001182055	19.863122001697818	4.258662069967395	16.73437500066943
1	main	24	1	1	0.8006953080002859	1	0.8040752979977697	0.7847276579996105	-0.01934763999815914	15.272342000389516	4.520220325028058	0.6953080002858325
1	main	25	1	1	0.8330730909983686	1	0.8320904129977862	0.822441099997377	-0.009649313000409165	22.44109999737698	5.005941594988835	33.07309099836853
1	main	26	1	1	0.7172841499996139	1	0.7243905350005662	0.7061415429998306	-0.018248992000735598	93.85845700016948	3.269057049981493	82.71585000038617
1	main	27	1	1	0.7505157999985386	1	0.7511605070030782	0.7360822150003514	-0.015078292002726812	63.91778499964862	3.7675286499850333	49.484200001461474
1	main	28	1	1	0.8848425629985286	1	0.8841331229996285	0.8680168199971376	-0.016116303002490895	68.0168199971376	5.782410369954741	84.84256299852855
1	main	29	0	1	0.8005977069988148	0.5750000000000001	0.8041062080010306	0.7849083350010915	-0.019197872999939136	68.0168199971376	1.1350000000000016	84.84256299852855
1	main	30	1	1	0.7345514150001691	1	0.736247787001048	0.7242429850011831	-0.012004801999864867	75.75701499881693	3.5280615550234504	65.44858499983097
1	main	31	1	1	0.8169500650001282	1	0.8240583530023287	0.8028391049992933	-0.021219248003035318	2.839104999293296	4.764043225002533	16.95006500012819
1	main	32	1	1	0.7827724779999699	1	0.7761100549978437	0.7665955199991004	-0.00951453499874333	33.40448000089968	4.251360369996982	17.22752200003019
1	main	33	0	1	0.7514793049995205	0.55	0.748168900001474	0.7400530300001265	-0.008115870001347503	33.40448000089968	0.7599999999999998	17.22752200003019
1	main	34	1	1	0.8164055300003383	1	0.8280656019996968	0.8145470489980653	-0.013518553001631517	14.547048998065248	4.755948399995541	16.40553000033829
1	main	35	1	1	0.8170221549989947	1	0.828265852000186	0.805177084999741	-0.023088767000444932	5.177084999741011	4.7651214250052	17.022154998994623
1	main	36	1	1	0.8179858069997863	1	0.8242615449998993	0.8051107600003888	-0.019150784999510506	5.110760000388792	4.779579804979003	17.98580699978625
1	main	37	1	1	0.8511335349976434	1	0.8480955999984872	0.8362435049966734	-0.011852095001813723	36.243504996673394	5.276793474984297	51.133534997643395
1	main	38	1	1	0.817880727998272	1	0.8280945190017519	0.8159313649994147	-0.01216315400233725	15.93136499941461	4.777950310015294	17.880727998272008
1	main	39	1	1	0.7842329900013283	1	0.792254280000634	0.7710368750013004	-0.021217404999333667	28.963124998699683	4.273283454984048	15.767009998671755
1	main	40	1	1	0.833931097000459	1	0.8441716769993945	0.8199061600025743	-0.024265516996820224	19.906160002574282	5.018756875013205	33.931097000458934
1	main	41	1	1	0.7669078379985876	1	0.7761408980004489	0.7540791399987938	-0.022061758001655107	45.92086000120621	4.01340704500195	33.092162001412404
1	main	42	1	1	0.8004232179991959	1	0.804053322000982	0.7963619799993467	-0.007691342001635348	3.638020000653386	4.516210705003468	0.42321799919586844
1	main	43	1	1	0.8011695390014211	1	0.8121429679995344	0.7889929440025298	-0.02315002399700461	11.007055997470205	4.527339865014946	1.1695390014210272
1	main	44	0	0	NaN	0.525	0.8121429679995344	0.7889929440025298	-0.02315002399700461	11.007055997470205	0.3849999999999998	1.1695390014210272
1	main	45	1	1	0.7837986669983366	1	0.8001440890002414	0.7821782569990319	-0.017965832001209492	17.82174300096817	4.266690654965496	16.201333001663485
1	main	46	1	1	0.8509388349993969	1	0.8601439820013184	0.849958754999534	-0.01018522700178437	49.95875499953395	5.273771769969025	50.93883499939689
1	main	47	1	1	0.8510898530003033	1	0.8480809749999025	0.8367963079981564	-0.01128466700174613	36.796307998156365	5.276134944977239	51.08985300030322
1	main	48	1	1	0.8005360509996535	1	0.8080912360019283	0.7977520230015216	-0.010339213000406744	2.2479769984784514	4.517773914992867	0.5360509996534812
1	main	49	1	1	0.784422042001097	1	0.7880399399982707	0.7690709620001144	-0.018968977998156333	30.929037999885665	4.276123150027852	15.577957998903047
1	main	50	1	1	0.8167194819980068	1	0.8362319529987872	0.8129908749979222	-0.023241078000864945	12.990874997922175	4.760577399991016	16.71948199800677
1	main	51	0	0	NaN	0.55	0.8362319529987872	0.8129908749979222	-0.023241078000864945	12.990874997922175	0.7599999999999998	16.71948199800677
1	main	52	1	1	0.7833450500002073	1	0.7962168220001331	0.782181323000259	-0.014035498999874108	17.818676999741044	4.259875149962463	16.654949999792777
1	main	53	1	1	0.9008787820021098	1	0.9001480670012825	0.8871207270021841	-0.01302733999909833	87.1207270021841	6.022968550021469	100.87878200210976
1	main	54	0	0	NaN	0.5750000000000001	0.9001480670012825	0.8871207270021841	-0.01302733999909833	87.1207270021841	1.1350000000000016	100.87878200210976
1	main	55	0	1	0.7511595729993132	0.6000000000000001	0.7521458850023919	0.7343429850006942	-0.017802900001697708	87.1207270021841	1.5100000000000016	100.87878200210976
1	main	56	0	1	0.783672966001177	0.5750000000000001	0.7921167029999197	0.768371048001427	-0.023745654998492682	87.1207270021841	1.1350000000000016	100.87878200210976
1	main	57	1	1	0.8341545180010144	1	0.8481232470003306	0.8311566680022224	-0.01696657899810816	31.15666800222239	5.0221061950085275	34.154518001014324
1	main	58	1	1	0.7992480769971735	1	0.820236591000139	0.7962853649987665	-0.02395122600137256	3.7146350012335905	4.498510329956625	0.75192300282656
1	main	59	0	1	0.7838411440025084	0.55	0.8040827740005625	0.7813339280000946	-0.022748846000467893	3.7146350012335905	0.7599999999999998	0.75192300282656
1	main	60	0	0	NaN	0.525	0.8040827740005625	0.7813339280000946	-0.022748846000467893	3.7146350012335905	0.3849999999999998	0.75192300282656
1	main	61	1	1	0.8334531949985831	1	0.8400366640016728	0.8292649190007069	-0.010771745000965893	29.264919000706826	5.011147869970737	33.453194998583015
1	main	62	0	0	NaN	0.55	0.8400366640016728	0.8292649190007069	-0.010771745000965893	29.264919000706826	0.7599999999999998	33.453194998583015
1	main	63	0	1	0.8666907719998562	0.5750000000000001	0.8841676749980252	0.8604719849972753	-0.02369569000074989	29.264919000706826	1.1350000000000016	33.453194998583015
1	main	64	1	1	0.8172772299985809	1	0.8401971949970175	0.816487509997387	-0.023709684999630554	16.48750999738691	4.768836924975185	17.277229998580836
1	main	65	0	0	NaN	0.55	0.8401971949970175	0.816487509997387	-0.023709684999630554	16.48750999738691	0.7599999999999998	17.277229998580836
1	main	66	1	1	0.8169896750005137	1	0.8322509770005126	0.8108089720008138	-0.021442004999698838	10.808972000813766	4.7646397000041905	16.98967500051363
1	main	67	1	1	0.732944788000168	1	0.7520864799989795	0.7314243129985698	-0.02066216700040968	68.57568700143024	3.5039483199923414	67.055211999832
1	main	68	1	1	0.9673002650015405	1	0.9842664460011292	0.9611473350014421	-0.02311911099968711	161.14733500144206	7.019286130014516	167.30026500154048
1	main	69	1	1	0.9172806730020966	1	0.9320850149997568	0.9149909400002798	-0.017094074999477016	114.99094000027976	6.26902601501366	117.28067300209655
1	main	70	1	1	0.900503740998829	1	0.9201527320001333	0.8991450289977365	-0.021007703002396738	99.14502899773647	6.01732043496464	100.50374099882897
1	main	71	1	1	0.8500512200007506	1	0.856150046998664	0.8352224549998937	-0.020927591998770367	35.22245499989363	5.2605652000036205	50.051220000750575
1	main	72	1	1	0.8164182830005302	1	0.8320828099967912	0.8129685669991886	-0.01911424299760256	12.96856699918858	4.756009074988251	16.418283000530167
1	main	73	0	1	0.8007023630016192	0.5750000000000001	0.8000459800023236	0.7839277810016938	-0.01611819900062983	12.96856699918858	1.1350000000000016	16.418283000530167
1	main	74	1	1	0.7166838149969408	1	0.7240391939994879	0.7058042549979291	-0.018234939001558814	94.19574500207095	3.2600456949674115	83.31618500305926
1	main	75	1	1	0.8171849950012984	1	0.8242468589996861	0.8090675700004795	-0.01517928899920662	9.067570000479419	4.767565300005808	17.184995001298333
1	main	76	1	1	0.8171269320009742	1	0.8282438780006487	0.8099717750010313	-0.018272102999617346	9.971775001031302	4.766699350036797	17.12693200097415
1	main	77	0	0	NaN	0.55	0.8282438780006487	0.8099717750010313	-0.018272102999617346	9.971775001031302	0.7599999999999998	17.12693200097415
1	main	78	1	1	0.8494545370012929	1	0.8602820000014617	0.8462161850002303	-0.014065815001231385	46.21618500023028	5.251608850028569	49.45453700129288
1	main	79	0	1	0.8173463980019733	0.5750000000000001	0.8361844120008755	0.816731773000356	-0.01945263900051941	46.21618500023028	1.1350000000000016	49.45453700129288
1	main	80	0	0	NaN	0.55	0.8361844120008755	0.816731773000356	-0.01945263900051941	46.21618500023028	0.7599999999999998	49.45453700129288
1	main	81	0	0	NaN	0.5750000000000001	0.8361844120008755	0.816731773000356	-0.01945263900051941	46.21618500023028	1.1350000000000016	49.45453700129288
1	main	82	0	0	NaN	0.6000000000000001	0.8361844120008755	0.816731773000356	-0.01945263900051941	46.21618500023028	1.5100000000000016	49.45453700129288
1	main	83	1	1	0.8506754979971447	1	0.8521025980007835	0.836763962997793	-0.015338635002990486	36.763962997792945	5.269926444960001	50.67549799714466
1	main	84	1	1	0.8671089949966699	1	0.8881991790003667	0.8640003019972937	-0.024198877003072994	64.00030199729368	5.516324124962702	67.10899499666989
1	main	85	1	1	0.9675803289974283	1	0.9720347649999894	0.9624911600003543	-0.009543604999635136	162.49116000035423	7.023574479969975	167.58032899742824
1	main	86	1	1	0.8844716259991401	1	0.9041628249979112	0.8821989850002865	-0.021963839997624746	82.19898500028644	5.77689385001373	84.47162599914004
1	main	87	1	1	0.8014631480000389	1	0.8121775430008711	0.7909025680019113	-0.021274974998959806	9.097431998088767	4.531637095040205	1.463148000038883
1	main	88	1	1	0.7836941199966532	1	0.7922517629995127	0.7742927769977541	-0.017958986001758603	25.707223002245925	4.265201349951676	16.30588000334687
1	main	89	1	1	0.8504256029991666	1	0.8520507079992967	0.8339056249969872	-0.018145083002309548	33.90562499698713	5.266254669984628	50.42560299916654
1	main	90	1	1	0.8006622069988225	1	0.8002425510021567	0.787752657000965	-0.012489894001191715	12.247342999035071	4.519720630012452	0.6622069988224677
1	main	91	1	1	0.734110278001026	1	0.756150825000077	0.7326610279997112	-0.023489797000365797	67.33897200028882	3.5213746450042525	65.88972199897403
1	main	92	1	1	0.8000794200015662	1	0.8202175680016808	0.7965117230014584	-0.023705845000222325	3.488276998541595	4.510984900023468	0.07942000156613283
1	main	93	0	1	0.7666638650007371	0.6250000000000001	0.7722578650027572	0.7582215450020158	-0.014036320000741398	3.488276998541595	1.8850000000000016	0.07942000156613283
1	main	94	1	1	0.7503629150014604	1	0.7600207920004323	0.7370890870006406	-0.02293170499979169	62.91091299935947	3.765311650020303	49.63708499853969
1	main	95	1	1	0.8675319370013312	1	0.8801462369992805	0.8535903269985283	-0.026555910000752192	53.59032699852828	5.522766880019626	67.5319370013312
1	main	96	1	1	0.7837569969997276	1	0.780035936000786	0.7695808629978274	-0.01045507300295867	30.41913700217269	4.26619886496861	16.24300300027248
1	main	97	0	1	0.7668844180007	0.6000000000000001	0.780129595001199	0.7610244700008479	-0.01910512500035111	30.41913700217269	1.5100000000000016	16.24300300027248
1	main	98	1	1	0.8676192420025473	1	0.8842055099994468	0.8670298470024136	-0.017175662997033214	67.02984700241355	5.524079155036597	67.61924200254721
1	main	99	1	1	0.8004747220002173	1	0.8081225549976807	0.7974227800004883	-0.010699774997192435	2.5772199995117706	4.516907200011483	0.47472200021725364
1	main	100	1	1	0.7660056150016317	1	0.7842353750020266	0.762348935000773	-0.021886440001253504	37.65106499922699	3.9998767299746394	33.994384998368375
2	main	101	1	1	0.10104060200319509	1	0.09629786699952092	0.08816530500189401	-0.008132561997626908	711.834694998106	-5.9746180249587635	698.9593979968049
2	main	102	0	1	0.7835105269987253	0.5750000000000001	0.7840506769971398	0.7670914519985672	-0.01695922499857261	711.834694998106	1.1350000000000016	698.9593979968049
2	main	103	1	1	0.7842278930002067	1	0.7840510930000164	0.7742772279998462	-0.00977386500017019	25.722772000153824	4.273088754996715	15.772106999793367
2	main	104	1	1	0.8002273079982842	1	0.800256434999028	0.7871154099993873	-0.01314102499964065	12.884590000612706	4.513202649993909	0.22730799828418746
2	main	105	1	1	0.78416423499948	1	0.7842530399975658	0.7737771729989618	-0.010475866998604033	26.222827001038283	4.272256120036909	15.835765000520086
2	main	106	1	1	0.8340940949965443	1	0.8402297749998979	0.8242156429987517	-0.01601413200114621	24.215642998751676	5.021202444948139	34.09409499654426
2	main	107	1	1	0.9006096409975726	1	0.912040008999611	0.8886680169998726	-0.023371991999738384	88.66801699987259	6.018917004983232	100.60964099757253
2	main	108	0	1	0.7513147460012988	0.55	0.7721118769986788	0.7494006310007535	-0.02271124599792529	88.66801699987259	0.7599999999999998	100.60964099757253
2	main	109	1	1	0.7846298399999796	1	0.7881901769978867	0.7676895369986596	-0.020500639999227133	32.31046300134044	4.279243224971433	15.37016000002045
2	main	110	1	1	0.7678848069990636	1	0.7682565920003981	0.7574996120019932	-0.010756979998404859	42.500387998006815	4.028063979983708	32.11519300093646
2	main	111	0	0	NaN	0.525	0.7682565920003981	0.7574996120019932	-0.010756979998404859	42.500387998006815	0.3849999999999998	32.11519300093646
2	main	112	1	1	0.8178796419997525	1	0.8241266530021676	0.8159914470015792	-0.008135206000588369	15.991447001579173	4.777939750017831	17.87964199975245
2	main	113	0	0	NaN	0.55	0.8241266530021676	0.8159914470015792	-0.008135206000588369	15.991447001579173	0.7599999999999998	17.87964199975245
2	main	114	1	1	0.933330809999461	1	0.9360282760026166	0.9255279800017888	-0.010500296000827802	125.52798000178878	6.509752225008706	133.330809999461
2	main	115	1	1	0.8338002950004011	1	0.8440805430000182	0.8218699479984934	-0.02221059500152478	21.8699479984934	5.016800049977755	33.80029500040105
2	main	116	0	1	0.7337324199979776	0.5750000000000001	0.7440440299978945	0.7312498079991201	-0.012794221998774447	21.8699479984934	1.1350000000000016	33.80029500040105
2	main	117	1	1	0.7675948649994098	1	0.7761004800013325	0.7645823349994316	-0.011518145001900848	35.41766500056842	4.023708894963201	32.40513500059028
2	main	118	1	1	0.7501545399973111	1	0.767122178000136	0.7368409949995112	-0.03028118300062488	63.159005000488875	3.762106719985022	49.84546000268897
2	main	119	1	1	0.767042745002982	1	0.7680587020004168	0.7529031970007054	-0.015155504999711411	47.09680299929464	4.015508650006959	32.95725499701807
2	main	120	1	1	0.7507198869971035	1	0.7562830670030962	0.7435462249995908	-0.012736842003505444	56.453775000409266	3.770592849994282	49.280113002896584
2	main	121	1	1	0.7672302659993875	1	0.768061819999275	0.7536734309978783	-0.014388389001396718	46.32656900212173	4.018325319973664	32.76973400061256
2	main	122	1	1	0.7163272779980616	1	0.7241259229995194	0.7070244280002953	-0.017101494999224087	92.97557199970474	3.2547020499785138	83.67272200193842
2	main	123	1	1	0.8673606929987727	1	0.8842290249995131	0.8648347279995505	-0.019394296999962535	64.83472799955048	5.5201919199660185	67.36069299877268
2	main	124	1	1	0.766930499998125	1	0.7762455570009479	0.7635286670010828	-0.012716889999865089	36.47133299891725	4.013750800002308	33.06950000187503
2	main	125	1	1	0.8176650449968292	1	0.8282100620017445	0.8164548329987156	-0.011755229003028944	16.45483299871553	4.774653849979368	17.665044996829195
2	main	126	1	1	0.7671320189983817	1	0.7720664650005347	0.7530165869975463	-0.019049878002988407	46.98341300245379	4.016773284982046	32.86798100161836
2	main	127	1	1	0.7840488719994028	1	0.7921038949971262	0.7822822059970349	-0.009821689000091283	17.717794002965135	4.270520200004976	15.951128000597281
2	main	128	1	1	0.7837456199995358	1	0.796027378000872	0.7717735660007747	-0.02425381200009724	28.226433999225307	4.265944270007603	16.254380000464195
2	main	129	0	1	0.7671433670002443	0.55	0.7761992849991657	0.755316311999195	-0.02088297299997066	28.226433999225307	0.7599999999999998	16.254380000464195
2	main	130	1	1	0.7177684339985717	1	0.7401913169996988	0.7164200209990668	-0.023771296000631992	83.57997900093328	3.2762006350074078	82.23156600142833
2	main	131	1	1	0.8170668420025322	1	0.8159929680005007	0.8054918900015764	-0.010501077998924302	5.491890001576349	4.765812940038595	17.06684200253217
2	main	132	1	1	0.7999249070016958	1	0.8080517439993855	0.7879083490006451	-0.020143394998740405	12.091650999354941	4.508736924997502	0.0750929983042159
2	main	133	0	0	NaN	0.525	0.8080517439993855	0.7879083490006451	-0.020143394998740405	12.091650999354941	0.3849999999999998	0.0750929983042159
2	main	134	1	1	0.8006246779987123	1	0.8201201660012885	0.7998844840003585	-0.020235682000929955	0.11551599964154668	4.519188775009534	0.6246779987122419
2	main	135	1	1	0.8179118869993545	1	0.8282964169993647	0.8097686849978345	-0.01852773200153024	9.768684997834454	4.778460924969986	17.911886999354422
2	main	136	1	1	0.8006600179978705	1	0.8039473989992985	0.783680299999105	-0.02026709900019341	16.319700000894997	4.519689069964224	0.6600179978704102
2	main	137	1	1	0.8172959479998099	1	0.812088794002193	0.8022565510000277	-0.009832243002165342	2.25655100002764	4.769223594992363	17.295947999809826
2	main	138	1	1	0.8004390499991132	1	0.8162609930004692	0.7955424749998201	-0.020718518000649055	4.457525000179929	4.516376049994287	0.43904999911315024
2	main	139	1	1	0.7670630149987119	1	0.7762127250025515	0.7567894700005127	-0.019423255002038786	43.21052999948738	4.015737249990488	32.936985001288164
2	main	140	1	1	0.7836806169980264	1	0.7882943229997181	0.7804175749988644	-0.007876748000853695	19.582425001135604	4.26500622999607	16.319383001973662
2	main	141	1	1	0.8337190849997569	1	0.8321435829966504	0.8207228969986318	-0.011420685998018598	20.722896998631725	5.015578254986176	33.719084999756845
2	main	142	1	1	0.8002204229997005	1	0.8240445629999158	0.7998327009991044	-0.02421186200081138	0.16729900089562655	4.513052665004361	0.22042299970048695
2	main	143	1	1	0.8004439870019269	1	0.7962503109993122	0.7842358150010114	-0.012014495998300845	15.764184998988684	4.516451604993344	0.4439870019268266
2	main	144	0	0	NaN	0.55	0.7962503109993122	0.7842358150010114	-0.012014495998300845	15.764184998988684	0.7599999999999998	0.4439870019268266
2	main	145	1	1	0.8513941149976745	1	0.852091657998244	0.8394056229990383	-0.01268603499920573	39.40562299903827	5.280700119999674	51.394114997674436
2	main	146	1	1	0.8177571619999071	1	0.8322366520005744	0.8095650270006445	-0.022671624999929918	9.565027000644433	4.776151000039826	17.75716199990707
2	main	147	1	1	0.8505451529999846	1	0.8602574989999994	0.8456088749990158	-0.014648624000983546	45.60887499901578	5.26796496998737	50.54515299998452
2	main	148	1	1	0.7994664879988704	1	0.8000465919976705	0.7861607929989987	-0.013885798998671817	13.839207001001386	4.501800024989061	0.5335120011296102
2	main	149	1	1	0.7833293849980691	1	0.7920916289986053	0.770247306998499	-0.02184432200010633	29.752693001501072	4.259733654978627	16.670615001930898
2	main	150	1	1	0.7504535970001598	1	0.7520304819990997	0.7389743269995961	-0.013056154999503633	61.025673000403955	3.7666717299887384	49.546402999840254
2	main	151	0	1	0.8002284849972057	0.5750000000000001	0.8042479720024858	0.7939117829992028	-0.010336189003282925	61.025673000403955	1.1350000000000016	49.546402999840254
2	main	152	1	1	0.8007895800001279	1	0.8121742629991786	0.7938368079994689	-0.018337454999709735	6.16319200053117	4.521637869982223	0.7895800001278541
2	main	153	1	1	0.8174909099980141	1	0.8321464100008598	0.8124936329986667	-0.019652777002193034	12.493632998666682	4.772145400000008	17.49090999801406
2	main	154	0	0	NaN	0.55	0.8321464100008598	0.8124936329986667	-0.019652777002193034	12.493632998666682	0.7599999999999998	17.49090999801406
2	main	155	0	0	NaN	0.5750000000000001	0.8321464100008598	0.8124936329986667	-0.019652777002193034	12.493632998666682	1.1350000000000016	17.49090999801406
2	main	156	0	1	0.9010411420022137	0.6000000000000001	0.9001669360004598	0.8872760150006798	-0.012890920999780064	12.493632998666682	1.5100000000000016	17.49090999801406
2	main	157	1	1	0.8340709170006448	1	0.8442568079990451	0.8268913220017566	-0.017365485997288488	26.891322001756592	5.020853800013137	34.0709170006448
2	main	158	1	1	0.9173236269998597	1	0.9360880230015027	0.911689993001346	-0.024398030000156723	111.68999300134597	6.269656224992795	117.32362699985966
2	main	159	0	1	0.8007860249999794	0.5750000000000001	0.8040756170012173	0.7869443970012071	-0.017131220000010217	111.68999300134597	1.1350000000000016	117.32362699985966
2	main	160	0	1	0.7670943299999635	0.55	0.768224587001896	0.7579022600002645	-0.010322327001631493	111.68999300134597	0.7599999999999998	117.32362699985966
2	main	161	1	1	0.8344772900018143	1	0.8442741440012469	0.8263867950008716	-0.017887349000375252	26.3867950008716	5.026943245027505	34.47729000181421
2	main	162	0	0	NaN	0.525	0.8442741440012469	0.8263867950008716	-0.017887349000375252	26.3867950008716	0.3849999999999998	34.47729000181421
2	main	163	0	0	NaN	0.55	0.8442741440012469	0.8263867950008716	-0.017887349000375252	26.3867950008716	0.7599999999999998	34.47729000181421
2	main	164	1	1	0.9181116969994036	1	0.9160710559990548	0.9033587199992326	-0.012712335999822244	103.35871999923252	6.281468650029419	118.1116969994036
2	main	165	0	1	0.8346927649981808	0.5750000000000001	0.8320691049993911	0.8175205449988425	-0.014548560000548605	103.35871999923252	1.1350000000000016	118.1116969994036
2	main	166	1	1	0.8841396499992697	1	0.8882365839999693	0.873380154996994	-0.014856429002975347	73.38015499699391	5.771886099971889	84.13964999926971
2	main	167	1	1	0.8174462650022178	1	0.8322080859979906	0.8111748150004132	-0.021033270997577347	11.174815000413174	4.771451335034508	17.4462650022178
2	main	168	1	1	0.8501018349998049	1	0.8600528299975849	0.8471550299982482	-0.012897799999336712	47.15502999824817	5.261334624990704	50.10183499980481
2	main	169	1	1	0.8002468220001901	1	0.8162541759993474	0.7940504600010172	-0.022203715998330154	5.949539998982845	4.513499650018057	0.24682200019010558
2	main	170	1	1	0.8169704280007863	1	0.8360890010008006	0.8148094829994079	-0.021279518001392717	14.809482999407875	4.764332394986704	16.9704280007863
2	main	171	1	1	0.8170907970015833	1	0.8322434819965565	0.8100742349997745	-0.02216924699678202	10.074234999774445	4.766157850006275	17.090797001583226
2	main	172	1	1	0.8165880599990487	1	0.840174343000399	0.8159383099991828	-0.02423603300121613	15.938309999182776	4.758603669977456	16.588059999048667
2	main	173	0	0	NaN	0.55	0.840174343000399	0.8159383099991828	-0.02423603300121613	15.938309999182776	0.7599999999999998	16.588059999048667
2	main	174	1	1	0.8170075749985699	1	0.8242543790001946	0.8058840869998676	-0.018370292000327026	5.884086999867533	4.764898450009932	17.007574998569865
2	main	175	1	1	0.8343186299971421	1	0.8441277889978664	0.8232847599974775	-0.020843029000388924	23.28475999747748	5.024569899976777	34.31862999714208
2	main	176	1	1	0.8178562049979519	1	0.8192232719993626	0.8093046750000212	-0.00991859699934139	9.30467500002119	4.777633675000979	17.85620499795182
2	main	177	0	1	0.8169470319990069	0.5750000000000001	0.8201917650003452	0.8019362599989108	-0.018255505001434358	9.30467500002119	1.1350000000000016	17.85620499795182
2	main	178	1	1	0.7505897200026084	1	0.7680892699972901	0.7481239049993746	-0.019965364997915458	51.8760950006254	3.7686100750013427	49.41027999739167
2	main	179	0	0	NaN	0.55	0.7680892699972901	0.7481239049993746	-0.019965364997915458	51.8760950006254	0.7599999999999998	49.41027999739167
2	main	180	0	1	0.7838670300006925	0.5750000000000001	0.7922451030026423	0.7704595620016335	-0.021785541001008824	51.8760950006254	1.1350000000000016	49.41027999739167
