Block	TrialType	Trial	Signal	Response	RT	SSD	keyDuration	keyDuration_startSyched	keyRT	feedback_ms	vert	feedback_synched
1	practice	1	1	1	0.7995802619989263	1	0.8122592719992099	0.7932056649988226	-0.019053607000387274	6.794335001177432	4.503498774991167	0.41973800107375503
1	practice	2	0	0	NaN	0.5	0.8122592719992099	0.7932056649988226	-0.019053607000387274	6.794335001177432	0.009999999999999787	0.41973800107375503
1	main	1	1	1	0.8174428530001023	1	0.8200955220017931	0.8062694079999346	-0.013826114001858514	6.269407999934584	4.771404369965021	17.44285300010229
1	main	2	1	1	0.8334790329972748	1	0.8402015079991543	0.8303029079979751	-0.009898600001179148	30.302907997975083	5.012004099987971	33.47903299727473
1	main	3	1	1	0.8163373700008378	1	0.8361776950005151	0.8137249999999767	-0.02245269500053837	13.724999999976673	4.754820880023326	16.337370000837794
1	main	4	1	1	0.8340803319988481	1	0.8400906330025464	0.8188606750009058	-0.021229958001640625	18.860675000905715	5.021001999973814	34.08033199884808
1	main	5	1	1	0.7679885600009584	1	0.7680965280014789	0.753085992000706	-0.015010536000772845	46.914007999294014	4.029469180020678	32.011439999041656
1	main	6	1	1	0.8339874599987525	1	0.8280858780017297	0.8192617519998748	-0.008824126001854893	19.26175199987479	5.019603879971109	33.98745999875241
1	main	7	1	1	0.8002806629992847	1	0.8120850699997391	0.7891537599971343	-0.022931310002604732	10.846240002865715	4.513938744965126	0.2806629992846421
1	main	8	0	0	NaN	0.5250000000000001	0.8120850699997391	0.7891537599971343	-0.022931310002604732	10.846240002865715	0.38500000000000156	0.2806629992846421
1	main	9	0	0	NaN	0.55	0.8120850699997391	0.7891537599971343	-0.022931310002604732	10.846240002865715	0.7599999999999998	0.2806629992846421
1	main	10	1	1	0.7505287550011417	1	0.7601463210012298	0.7499738850019639	-0.010172435999265872	50.02611499803611	3.767633155018993	49.47124499885835
1	main	11	0	0	NaN	0.5750000000000001	0.7601463210012298	0.7499738850019639	-0.010172435999265872	50.02611499803611	1.1350000000000016	49.47124499885835
1	main	12	1	1	0.8335980750016461	1	0.8442050529993139	0.8261479780012451	-0.018057074998068856	26.147978001245022	5.013765925011976	33.59807500164602
1	main	13	1	1	0.8848316309995425	1	0.9081528229980904	0.8838145509980677	-0.024338272000022698	83.81455099806767	5.782174240009917	84.8316309995425
1	main	14	1	1	0.8513346969994018	1	0.8480652420003025	0.8367830290007987	-0.011282212999503827	36.78302900079866	5.279820549983706	51.33469699940174
1	main	15	0	1	0.8015326470012951	0.6000000000000001	0.8002621369996632	0.7918059449984867	-0.008456192001176532	36.78302900079866	1.5100000000000016	51.33469699940174
1	main	16	1	1	0.8829553409996151	1	0.8880262940001558	0.8666436450002948	-0.021382648999860976	66.64364500029474	5.754199975033552	82.9553409996151
1	main	17	1	1	0.8012814300018363	1	0.8001968280004803	0.7845548770019377	-0.015641950998542598	15.445122998062333	4.5290177500262505	1.2814300018362257
1	main	18	1	1	0.8336869649974687	1	0.836066578001919	0.8238401759990666	-0.01222640200285241	23.840175999066517	5.015095569995319	33.686964997468706
1	main	19	1	1	0.7678145999998378	1	0.7880933869964792	0.7650247949968616	-0.023068591999617638	34.97520500313844	4.026995199963276	32.18540000016223
1	main	20	1	1	0.8499986749993695	1	0.8680479649992776	0.8437387649973971	-0.024309200001880527	43.73876499739704	5.259776874970848	49.9986749993695
1	main	21	1	1	0.8003217149998818	1	0.8122580269991886	0.7950292069981515	-0.017228820001037093	4.97079300184855	4.514625204990589	0.32171499988176144
1	main	22	1	1	0.8342576850009209	1	0.8482605649987818	0.8235574780010211	-0.024703086997760693	23.55747800102104	5.023665670030605	34.25768500092086
1	main	23	1	1	0.8012123730004532	1	0.7962184550015081	0.7878054380016692	-0.008413016999838874	12.1945619983308	4.527987550007092	1.2123730004531819
1	main	24	1	1	0.83370455000113	1	0.8482596079993527	0.823891503001505	-0.024368104997847695	23.891503001505	5.015368720012484	33.70455000112993
1	main	25	1	1	0.7827372050014674	1	0.8001115000006394	0.7804314120003255	-0.019680088000313845	19.568587999674534	4.250842975032137	17.26279499853267
1	main	26	0	0	NaN	0.5750000000000001	0.8001115000006394	0.7804314120003255	-0.019680088000313845	19.568587999674534	1.1350000000000016	17.26279499853267
1	main	27	1	1	0.833614471997862	1	0.8400539979993482	0.8211141100000532	-0.018939887999295024	21.114110000053145	5.014013499965367	33.61447199786194
1	main	28	1	1	0.8342379220011935	1	0.848273892999714	0.8233015619989601	-0.02497233100075391	23.301561998960054	5.023365775030252	34.23792200119347
1	main	29	1	1	0.8011772069985454	1	0.8042340500032878	0.7906597920009517	-0.013574258002336137	9.340207999048333	4.5274548999784745	1.1772069985453992
1	main	30	1	1	0.8503540430028806	1	0.8601450579990342	0.8418500330008101	-0.018295024998224108	41.85003300081003	5.265111220030812	50.3540430028806
1	main	31	0	1	0.816991390001931	0.6000000000000001	0.8280371600012586	0.8015106880011444	-0.026526472000114154	41.85003300081003	1.5100000000000016	50.3540430028806
1	main	32	0	1	0.7841417679992446	0.5750000000000001	0.7962438739996287	0.776770177999424	-0.019473696000204654	41.85003300081003	1.1350000000000016	50.3540430028806
1	main	33	1	1	0.8002570579992607	1	0.816300484999374	0.7914316400019743	-0.02486884499739972	8.568359998025743	4.513651795039332	0.2570579992606792
1	main	34	0	0	NaN	0.55	0.816300484999374	0.7914316400019743	-0.02486884499739972	8.568359998025743	0.7599999999999998	0.2570579992606792
1	main	35	1	1	0.8173659029998817	1	0.82024143200033	0.8056217250014015	-0.01461970699892845	5.621725001401456	4.770285670035955	17.365902999881612
1	main	36	1	1	0.7840138800020213	1	0.792171815999609	0.7758397680008784	-0.01633204799873056	24.16023199912165	4.27000057002966	15.98611999797872
1	main	37	1	1	0.7676313910014869	1	0.7720756919989071	0.7582912479992956	-0.01378444399961154	41.70875200070445	4.02426836500832	32.368608998513125
1	main	38	1	1	0.8517417639995983	1	0.8601878199988278	0.8492447290009295	-0.010943090997898253	49.24472900092947	5.285933784978406	51.74176399959829
1	main	39	1	1	0.8680655979987932	1	0.8682617630001914	0.8554516680014785	-0.012810094998712884	55.451668001478495	5.53077554501011	68.0655979987932
1	main	40	0	0	NaN	0.5750000000000001	0.8682617630001914	0.8554516680014785	-0.012810094998712884	55.451668001478495	1.1350000000000016	68.0655979987932
1	main	41	1	1	0.9004946550012392	1	0.9002351550007006	0.890866965000896	-0.0093681899998046	90.86696500089597	6.017216799989692	100.49465500123911
1	main	42	1	1	0.7507060530006129	1	0.7602629310022166	0.7418758280000475	-0.01838710300216917	58.124171999952566	3.7703898999986993	49.29394699938716
1	main	43	1	1	0.8011414249995141	1	0.808179873998597	0.7843439620010031	-0.02383591199759394	15.656037998996952	4.526906725039007	1.1414249995140846
1	main	44	1	1	0.8507556080003269	1	0.8601462070000707	0.847835140000825	-0.012311066999245668	47.83514000082501	5.271146395005198	50.75560800032686
1	main	45	1	1	0.800595405002241	1	0.8122433249991445	0.7885272150015226	-0.02371610999762197	11.472784998477481	4.518728725031687	0.5954050022409785
1	main	46	0	1	0.8002182849995734	0.6000000000000001	0.8082509480009321	0.7939941619988531	-0.014256786002079025	11.472784998477481	1.5100000000000016	0.5954050022409785
1	main	47	1	1	0.7838021200004732	1	0.8042948749971401	0.7807714279988431	-0.023523446998297004	19.228572001156905	4.266840895013738	16.19787999952682
1	main	48	1	1	0.8506720980003593	1	0.8560729700002412	0.8343571430013981	-0.021715826998843113	34.35714300139803	5.269878550023131	50.67209800035921
1	main	49	0	0	NaN	0.5750000000000001	0.8560729700002412	0.8343571430013981	-0.021715826998843113	34.35714300139803	1.1350000000000016	50.67209800035921
1	main	50	1	1	0.8336320199996408	1	0.832075887999963	0.8179132549994392	-0.014162633000523783	17.91325499943919	5.014284550032025	33.63201999964072
1	main	51	1	1	0.784524335002061	1	0.784027686000627	0.77117432200248	-0.01285336399814696	28.825677997520003	4.277648800032475	15.475664997939065
1	main	52	0	0	NaN	0.6000000000000001	0.784027686000627	0.77117432200248	-0.01285336399814696	28.825677997520003	1.5100000000000016	15.475664997939065
1	main	53	1	1	0.8499993750010617	1	0.8681851839974115	0.8460676069989859	-0.022117576998425648	46.06760699898582	5.259788979999721	49.999375001061665
1	main	54	1	1	0.8349630029988475	1	0.844081532999553	0.8194840329997533	-0.024597499999799766	19.48403299975321	5.034247149995062	34.96300299884747
1	main	55	1	1	0.8168027249994338	1	0.8320856550017197	0.8120064600007026	-0.02007919500101707	12.006460000702601	4.761858324998466	16.802724999433806
1	main	56	0	1	0.8170735140010947	0.625	0.8201142099969729	0.8099415659999067	-0.010172643997066189	12.006460000702601	1.8849999999999998	16.802724999433806
1	main	57	1	1	0.8503814209980192	1	0.8642558270003065	0.8464099429984344	-0.017845884001872037	46.409942998434374	5.265516114957572	50.381420998019124
1	main	58	1	1	0.8663536419990123	1	0.8720517379988451	0.8502479499984474	-0.021803788000397617	50.247949998447396	5.504990049955959	66.35364199901228
1	main	59	1	1	0.8005564679988311	1	0.8122418769999058	0.7968564729999343	-0.015385403999971459	3.1435270000657045	4.518141565020196	0.5564679988310228
1	main	60	1	1	0.867355589998624	1	0.8722556499997154	0.8564310929978092	-0.015824557001906214	56.43109299780913	5.520127419966011	67.35558999862401
1	main	61	1	1	0.7507721319998382	1	0.764247355000407	0.7398396370008413	-0.024407717999565648	60.16036299915872	3.7713763600165837	49.22786800016188
1	main	62	1	1	0.7836756100005005	1	0.7922539249993861	0.7739603000009083	-0.018293624998477753	26.039699999091724	4.264927150013827	16.324389999499587
1	main	63	0	1	0.8177716099999088	0.6000000000000001	0.8282738420020905	0.8061582900008943	-0.022115552001196193	26.039699999091724	1.5100000000000016	16.324389999499587
1	main	64	1	1	0.7670943820012326	1	0.7760786380022182	0.7507063900011417	-0.025372248001076514	49.293609998858344	4.016208549999428	32.905617998767454
1	main	65	0	0	NaN	0.5750000000000001	0.7760786380022182	0.7507063900011417	-0.025372248001076514	49.293609998858344	1.1350000000000016	32.905617998767454
1	main	66	0	1	0.8165084280008159	0.6000000000000001	0.8320434349989227	0.8072385619998386	-0.024804872999084182	49.293609998858344	1.5100000000000016	32.905617998767454
1	main	67	1	1	0.917155350001849	1	0.9322488799989515	0.9096156570012681	-0.022633222997683333	109.61565700126808	6.267129400037229	117.15535000184896
1	main	68	0	0	NaN	0.5750000000000001	0.9322488799989515	0.9096156570012681	-0.022633222997683333	109.61565700126808	1.1350000000000016	117.15535000184896
1	main	69	1	1	0.7836287370009813	1	0.8002017260005232	0.7759917800030962	-0.024209945997426985	24.008219996903833	4.264233475003275	16.371262999018697
1	main	70	1	1	0.8171875100015313	1	0.8200509039997996	0.8051331210008357	-0.014917782998963958	5.133121000835628	4.767591159977892	17.187510001531294
1	main	71	1	1	0.867689982002048	1	0.8682503370000632	0.8594052650005324	-0.008845071999530774	59.40526500053234	5.5251462250069014	67.68998200204801
1	main	72	1	1	0.8004329969990067	1	0.8082455930016295	0.7905656100010674	-0.01767998300056206	9.434389998932646	4.516291075012996	0.432996999006674
1	main	73	0	1	0.850463408001815	0.6000000000000001	0.8641185229971597	0.8473493179990328	-0.016769204998126952	9.434389998932646	1.5100000000000016	0.432996999006674
1	main	74	1	1	0.8849951880001754	1	0.8920838599988201	0.8702867760002846	-0.021797083998535527	70.28677600028455	5.784719695000385	84.99518800017536
1	main	75	1	1	0.9348158749999129	1	0.9400694610012579	0.9191852700023446	-0.020884190998913255	119.18527000234458	6.5320372299882	134.81587499991286
1	main	76	1	1	0.9158320129972708	1	0.9362422589983908	0.9121033499977784	-0.02413890900061233	112.10334999777838	6.247274349987274	115.83201299727075
1	main	77	1	1	0.7827905199992529	1	0.7922625920000428	0.7714104529986798	-0.020852139001362957	28.589547001320213	4.251640449981787	17.209480000747178
1	main	78	0	1	0.7678484930002014	0.5750000000000001	0.7840839179989416	0.7668029329979618	-0.017280985000979854	28.589547001320213	1.1350000000000016	17.209480000747178
1	main	79	1	1	0.8005741460001445	1	0.8201087510024081	0.7975519550018362	-0.02255679600057192	2.4480449981638674	4.5184315000167405	0.5741460001444931
1	main	80	1	1	0.7842001099998015	1	0.7841219149995595	0.7702942020005139	-0.013827712999045616	29.705797999486137	4.272797350002074	15.799890000198547
1	main	81	0	0	NaN	0.55	0.7841219149995595	0.7702942020005139	-0.013827712999045616	29.705797999486137	0.7599999999999998	15.799890000198547
1	main	82	1	1	0.8670853950025048	1	0.8841915279990644	0.8619321480000508	-0.022259379999013618	61.93214800005076	5.516076550009311	67.08539500250477
1	main	83	1	1	0.7841851299999689	1	0.7880830850008351	0.769106957999611	-0.018976127001224086	30.893042000389002	4.272578274992847	15.814870000031123
1	main	84	0	1	0.7673479810000572	0.5750000000000001	0.7680973450005695	0.7532165060001716	-0.014880839000397827	30.893042000389002	1.1350000000000016	15.814870000031123
1	main	85	1	1	0.75081748500088	1	0.7722266679993481	0.7482734879995405	-0.023953179999807617	51.72651200045952	3.7720267750207856	49.18251499912007
1	main	86	1	1	0.8504482050011575	1	0.8480928520002635	0.8364639170031296	-0.01162893499713391	36.463917003129566	5.266514380034787	50.44820500115743
1	main	87	0	0	NaN	0.55	0.8480928520002635	0.8364639170031296	-0.01162893499713391	36.463917003129566	0.7599999999999998	50.44820500115743
1	main	88	1	1	0.8844252479975694	1	0.89625661899845	0.871853224998631	-0.024403393999818945	71.853224998631	5.776168794980331	84.42524799756934
1	main	89	1	1	0.8007640420000826	1	0.8080795909991139	0.7848758999971324	-0.023203691001981497	15.12410000286768	4.521250929954258	0.7640420000825099
1	main	90	1	1	0.866773514997476	1	0.8842041570023866	0.863795029999892	-0.020409127002494643	63.79502999989195	5.511422049983375	66.77351499747597
1	main	91	1	1	0.7997143399989	1	0.8241755990020465	0.7969775919991662	-0.02719800700288033	3.022408000833865	4.505498079959361	0.2856600011000854
1	main	92	0	1	0.766963959998975	0.5750000000000001	0.7762485729981563	0.761701102997904	-0.01454747000025236	3.022408000833865	1.1350000000000016	0.2856600011000854
1	main	93	1	1	0.8509359300005599	1	0.8642573340002855	0.8403252269999939	-0.02393210700029158	40.32522699999386	5.273837980019161	50.93593000055985
1	main	94	0	0	NaN	0.55	0.8642573340002855	0.8403252269999939	-0.02393210700029158	40.32522699999386	0.7599999999999998	50.93593000055985
1	main	95	0	1	0.7842607750026218	0.5750000000000001	0.8002542480026023	0.7778702630021144	-0.022383985000487883	40.32522699999386	1.1350000000000016	50.93593000055985
1	main	96	1	1	0.7673046300005808	1	0.7802469380003458	0.7620421899991925	-0.018204748001153348	37.957810000807555	4.019365704987431	32.69536999941924
1	main	97	1	1	0.7665834580002411	1	0.7842543920014577	0.7634924630001478	-0.02076192900130991	36.507536999852206	4.008542949975672	33.41654199975896
1	main	98	1	1	0.8000683750033204	1	0.8081932829991274	0.7833260370025528	-0.02486724599657464	16.673962997447276	4.510815850024082	0.0683750033203534
1	main	99	1	1	0.8012415249977494	1	0.8162457329999597	0.7908611499988183	-0.025384583001141436	9.138850001181753	4.528417749986838	1.2415249977493215
1	main	100	1	1	0.8004781799972989	1	0.812237649999588	0.7872992049997265	-0.02493844499986153	12.700795000273546	4.5169689999581895	0.4781799972988221
2	main	101	1	1	0.8001268439984415	1	0.8082097750011599	0.7975981080016936	-0.010611666999466252	2.401891998306427	4.5116762799969	0.12684399844142824
2	main	102	1	1	0.8008404489992245	1	0.8002336110002943	0.7879170289998001	-0.012316582000494236	12.082971000199949	4.5224031849991295	0.8404489992244191
2	main	103	1	1	0.8007883469981607	1	0.804250500001217	0.7875443299999461	-0.016706170001270948	12.455670000053987	4.521625030008872	0.7883469981606606
2	main	104	1	1	0.7503476220008451	1	0.77213506499902	0.7487816299981205	-0.02335343500089948	51.21837000187956	3.764936274999636	49.65237799915489
2	main	105	1	1	0.8008634319994599	1	0.8082454579998739	0.7874244320009893	-0.02082102599888458	12.575567999010717	4.522747480021062	0.8634319994598183
2	main	106	1	1	0.7993185010018351	1	0.8160717940008908	0.7910039270027482	-0.025067866998142563	8.996072997251803	4.4996170750325835	0.6814989981649422
2	main	107	1	1	0.7995083030000387	1	0.8162639210022462	0.7919853280000098	-0.024278593002236448	8.014671999990286	4.502419045018323	0.4916969999613219
2	main	108	0	1	0.7843357150013617	0.55	0.7801053069997579	0.7711039030000393	-0.009001403999718605	8.014671999990286	0.7599999999999998	0.4916969999613219
2	main	109	0	0	NaN	0.5250000000000001	0.7801053069997579	0.7711039030000393	-0.009001403999718605	8.014671999990286	0.38500000000000156	0.4916969999613219
2	main	110	1	1	0.7834865980003087	1	0.7882627020007931	0.7729798780019337	-0.015282823998859385	27.020121998066358	4.262097475000482	16.51340199969131
2	main	111	0	1	0.8001672040008998	0.55	0.7960911829977704	0.7874732460004452	-0.00861793699732516	27.020121998066358	0.7599999999999998	16.51340199969131
2	main	112	1	1	0.8512209880027513	1	0.8522597199989832	0.8426242999994429	-0.009635419999540318	42.62429999944284	5.278113070032996	51.22098800275121
2	main	113	1	1	0.9341711929992016	1	0.9442522719982662	0.927428016999329	-0.01682425499893725	127.42801699932893	6.522357894971501	134.17119299920154
2	main	114	1	1	0.8175519300020824	1	0.8362506180019409	0.8112131000016234	-0.025037518000317505	11.213100001623344	4.77307145503597	17.55193000208233
2	main	115	0	0	NaN	0.5250000000000001	0.8362506180019409	0.8112131000016234	-0.025037518000317505	11.213100001623344	0.38500000000000156	17.55193000208233
2	main	116	1	1	0.767525694998767	1	0.7640925330015307	0.7537053870000818	-0.010387146001448855	46.294612999918215	4.022685204997979	32.47430500123305
2	main	117	1	1	0.817389797000942	1	0.8282299200000125	0.8097709790017689	-0.018458940998243634	9.77097900176882	4.770649180025211	17.38979700094201
2	main	118	1	1	0.8669755599985365	1	0.8881389369998942	0.8658113649980805	-0.022327572001813678	65.81136499808049	5.514385690019262	66.97555999853644
2	main	119	1	1	0.8506491459993413	1	0.8481021869993128	0.8363095429995155	-0.011792643999797292	36.3095429995155	5.269531914998661	50.64914599934123
2	main	120	1	1	0.7838493550007115	1	0.7842844750011864	0.7729201100009959	-0.011364365000190446	27.079889999004124	4.267537225003034	16.15064499928853
2	main	121	1	1	0.8001296069996897	1	0.8201911370015296	0.7975065669998003	-0.0226845700017293	2.493433000199774	4.511740929954394	0.1296069996896687
2	main	122	1	1	0.7849286810014746	1	0.7881597759987926	0.7683618660012144	-0.019797909997578245	31.638133998785676	4.283721895042399	15.07131899852543
2	main	123	1	1	0.8169832029998361	1	0.8360951780014148	0.8146266370022204	-0.021468540999194374	14.626637002220333	4.76455421501465	16.983202999836024
2	main	124	1	1	0.8004235139997036	1	0.8081999919995724	0.7953163639976992	-0.012883628001873149	4.683636002300817	4.516147884985694	0.42351399970352865
2	main	125	1	1	0.783918889999768	1	0.800202509999508	0.7829910019972885	-0.01721150800221949	17.008998002711493	4.268530780007277	16.081110000232044
2	main	126	0	1	0.7850968579987239	0.55	0.7844865579972975	0.7721358379967569	-0.012350720000540605	17.008998002711493	0.7599999999999998	16.081110000232044
2	main	127	1	1	0.7840159049992508	1	0.7960966279970307	0.7820904749969486	-0.014006153000082122	17.909525003051428	4.269962904998247	15.984095000749265
2	main	128	1	1	0.7848465600000054	1	0.796232977998443	0.7784035199983919	-0.01782945800005109	21.596480001608185	4.28249597501941	15.153439999994633
2	main	129	1	1	0.8170019399985904	1	0.8401674029992137	0.815696351997758	-0.024471051001455635	15.696351997757985	4.764723954993096	17.001939998590345
2	main	130	1	1	0.7505982980001136	1	0.7601319610002975	0.7488006330022472	-0.011331327998050256	51.19936699775285	3.76876217500263	49.40170199988647
2	main	131	0	0	NaN	0.5250000000000001	0.7601319610002975	0.7488006330022472	-0.011331327998050256	51.19936699775285	0.38500000000000156	49.40170199988647
2	main	132	0	1	0.7342989300013869	0.55	0.7473215120007808	0.7239280700014206	-0.02339344199936022	51.19936699775285	0.7599999999999998	49.40170199988647
2	main	133	1	1	0.8516321589995641	1	0.8641861149990291	0.8503425710005104	-0.013843543998518726	50.34257100051032	5.284255390013422	51.63215899956408
2	main	134	0	0	NaN	0.5250000000000001	0.8641861149990291	0.8503425710005104	-0.013843543998518726	50.34257100051032	0.38500000000000156	51.63215899956408
2	main	135	1	1	0.8334577349996835	1	0.8523061699997925	0.830446514999494	-0.021859655000298517	30.446514999493914	5.011658769997448	33.45773499968341
2	main	136	1	1	0.8499892769978032	1	0.8643380050016276	0.8426519019994885	-0.021686103002139134	42.65190199948843	5.259684085010813	49.9892769978032
2	main	137	1	1	0.8678732779990241	1	0.8722625600021274	0.8613967130004312	-0.010865847001696238	61.39671300043115	5.5278937449818475	67.8732779990241
2	main	138	1	1	0.8002182899981563	1	0.8082221699987713	0.7906405799985805	-0.017581590000190772	9.359420001419538	4.51306967497454	0.21828999815620698
2	main	139	1	1	0.7671662229986396	1	0.7923200160003034	0.76652152799943	-0.025798488000873476	33.47847200057008	4.017196074999228	32.833777001360474
2	main	140	0	0	NaN	0.55	0.7923200160003034	0.76652152799943	-0.025798488000873476	33.47847200057008	0.7599999999999998	32.833777001360474
2	main	141	1	1	0.8010597900029097	1	0.8161438380011532	0.7990559550016769	-0.017087882999476278	0.9440449983231236	4.5256799500182385	1.0597900029096774
2	main	142	1	1	0.8170320870012802	1	0.8162878099974478	0.8054357069995604	-0.010852102997887414	5.435706999560308	4.765278024986182	17.032087001280118
2	main	143	1	1	0.7667945280009008	1	0.7801226740011771	0.7658168300004036	-0.014305844000773504	34.18316999959647	4.011604599998245	33.20547199909929
2	main	144	1	1	0.8161597239995899	1	0.8243879229994491	0.8131513139996969	-0.011236608999752207	13.151313999696823	4.752220419993828	16.159723999589872
2	main	145	1	1	0.8175206300002174	1	0.8272263930011832	0.8111764400018728	-0.016049952999310335	11.17644000187279	4.772590900008945	17.52063000021731
2	main	146	0	0	NaN	0.5750000000000001	0.8272263930011832	0.8111764400018728	-0.016049952999310335	11.17644000187279	1.1350000000000016	17.52063000021731
2	main	147	1	1	0.8180402450016118	1	0.8242239779974625	0.8071663379996608	-0.017057639997801743	7.16633799966071	4.780394320021296	18.040245001611723
2	main	148	1	1	0.8007819249978638	1	0.8042644729976018	0.7932621099971584	-0.011002363000443438	6.73789000284164	4.52153140000315	0.781924997863781
2	main	149	0	1	0.8509538780017465	0.6000000000000001	0.8682663920008054	0.8416637549998995	-0.026602637000905816	6.73789000284164	1.5100000000000016	0.781924997863781
2	main	150	1	1	0.8345073980017332	1	0.8482348839970655	0.8291637549991719	-0.01907112899789354	29.1637549991719	5.027386000017723	34.50739800173319
2	main	151	1	1	0.849605198000063	1	0.8722198060022492	0.8491648030030774	-0.023055002999171847	49.16480300307735	5.253815320009162	49.60519800006291
2	main	152	0	1	0.7846815859993512	0.5750000000000001	0.7882773260025715	0.7772547060012585	-0.011022620001313044	49.16480300307735	1.1350000000000016	49.60519800006291
2	main	153	1	1	0.8006610840020585	1	0.8133802650008874	0.798870242000703	-0.014510023000184447	1.129757999297043	4.519606584997527	0.661084002058443
2	main	154	1	1	0.8340648949997558	1	0.8434056240002974	0.8288226020013099	-0.014583021998987533	28.822602001309818	5.0207696500163	34.06489499975574
2	main	155	1	1	0.8341380219972052	1	0.8362633680008003	0.8231481719994918	-0.013115196001308504	23.14817199949171	5.021866329987242	34.13802199720517
2	main	156	0	0	NaN	0.55	0.8362633680008003	0.8231481719994918	-0.013115196001308504	23.14817199949171	0.7599999999999998	34.13802199720517
2	main	157	1	1	0.7844727750016318	1	0.7881605270013097	0.770915312001307	-0.017245215000002645	29.084687998693013	4.2768782799955805	15.527224998368228
2	main	158	1	1	0.8504897079983493	1	0.860387766999338	0.8417187279992504	-0.01866903900008765	41.71872799925036	5.267128449993615	50.48970799834929
2	main	159	1	1	0.8166150799988827	1	0.8190656820006552	0.8091027730006317	-0.009962909000023501	9.10277300063167	4.7590251999806785	16.615079998882678
2	main	160	1	1	0.784354096998868	1	0.8043454030012072	0.7791666800003441	-0.0251787230008631	20.833319999655984	4.275101305009011	15.645903001132
2	main	161	1	1	0.8015282369997294	1	0.8122814849994029	0.7939743850001832	-0.018307099999219645	6.025614999816797	4.532713480000675	1.528236999729371
2	main	162	1	1	0.8165642479980306	1	0.8281468599998334	0.8150238369998988	-0.01312302299993462	15.023836999898732	4.758308544967585	16.56424799803058
2	main	163	0	0	NaN	0.5750000000000001	0.8281468599998334	0.8150238369998988	-0.01312302299993462	15.023836999898732	1.1350000000000016	16.56424799803058
2	main	164	1	1	0.7507452870013367	1	0.747928305001551	0.7354968450017623	-0.012431459999788785	64.50315499823778	3.7709788749978177	49.25471299866335
2	main	165	0	1	0.7673319899986382	0.6000000000000001	0.7881281450027018	0.7653617700016184	-0.02276637500108336	64.50315499823778	1.5100000000000016	49.25471299866335
2	main	166	0	0	NaN	0.5750000000000001	0.7881281450027018	0.7653617700016184	-0.02276637500108336	64.50315499823778	1.1350000000000016	49.25471299866335
2	main	167	1	1	0.8662258549993567	1	0.8710597429999325	0.8626133899997512	-0.008446353000181261	62.61338999975119	5.503216735012538	66.22585499935663
2	main	168	0	0	NaN	0.6000000000000001	0.8710597429999325	0.8626133899997512	-0.008446353000181261	62.61338999975119	1.5100000000000016	66.22585499935663
2	main	169	1	1	0.8508270349993836	1	0.8602591579983709	0.8470245099997555	-0.0132346479986154	47.024509999755495	5.272199229982798	50.82703499938357
2	main	170	1	1	0.8174166239987244	1	0.8280792270015809	0.8154853609994461	-0.012593866002134746	15.485360999446085	4.771067364961491	17.416623998724347
2	main	171	1	1	0.9331195929989917	1	0.9361037439994107	0.9206759049993707	-0.015427839000039967	120.67590499937064	6.506587795008963	133.11959299899166
2	main	172	1	1	0.7840484350017505	1	0.7962369999986549	0.7815419530015788	-0.014695046997076133	18.45804699842124	4.270472350033524	15.951564998249568
2	main	173	0	1	0.8176544449997891	0.625	0.824270968001656	0.8092336150002666	-0.01503735300138942	18.45804699842124	1.8849999999999998	15.951564998249568
2	main	174	1	1	0.8340894899993145	1	0.8440889329976926	0.8210468299985223	-0.02304210299917031	21.046829998522256	5.021130504972243	34.089489999314495
2	main	175	1	1	0.8169329570009722	1	0.8282791429992358	0.804524137001863	-0.02375500599737279	4.524137001862938	4.763785105003771	16.932957000972195
2	main	176	1	1	0.8347876949992497	1	0.8400965940018068	0.8213353700011794	-0.018761224000627408	21.335370001179356	5.031600700001727	34.78769499924961
2	main	177	1	1	0.7840695749982842	1	0.7841358900004707	0.7674705600002198	-0.016665330000250833	32.529439999780195	4.270839549970114	15.93042500171582
2	main	178	0	0	NaN	0.6000000000000001	0.7841358900004707	0.7674705600002198	-0.016665330000250833	32.529439999780195	1.5100000000000016	15.93042500171582
2	main	179	1	1	0.8672285420034314	1	0.8642093899979955	0.8505197720005526	-0.013689617997442838	50.51977200055258	5.518212325021304	67.22854200343131
2	main	180	1	1	0.8677691990014864	1	0.8720855970022967	0.8533077370011597	-0.018777860001137014	53.30773700115965	5.52633650502481	67.76919900148637
2	main	181	0	1	0.7844761430023937	0.625	0.7961111050026375	0.7750330180024321	-0.021078087000205414	53.30773700115965	1.8849999999999998	67.76919900148637
2	main	182	1	1	0.8010959579987684	1	0.8082808210019721	0.7890154980013904	-0.019265323000581702	10.984501998609675	4.526239420008787	1.095957998768382
2	main	183	1	1	0.867848767000396	1	0.8802415579993976	0.8672892419999698	-0.01295231599942781	67.28924199996978	5.527431925036362	67.848767000396
2	main	184	0	1	0.8006359270002577	0.6000000000000001	0.8121513119986048	0.8000593469987507	-0.012091964999854099	67.28924199996978	1.5100000000000016	67.848767000396
2	main	185	1	1	0.8498884599976009	1	0.8722729699984484	0.8477049049979541	-0.024568065000494244	47.7049049979541	5.258127204995398	49.88845999760083
2	main	186	1	1	0.8180510899983346	1	0.824157285002002	0.8071638799992797	-0.016993405002722284	7.163879999279699	4.780558854979754	18.051089998334604
2	main	187	0	1	0.7681573189984192	0.5750000000000001	0.772262293001404	0.7554209820009419	-0.016841311000462156	7.163879999279699	1.1350000000000016	18.051089998334604
2	main	188	1	1	0.8009541299979901	1	0.8109541490011907	0.7895564169994032	-0.021397732001787517	10.44358300059689	4.524105849993939	0.9541299979900497
2	main	189	1	1	0.8015112899993255	1	0.8081419170011941	0.7982757850004418	-0.009866132000752259	1.7242149995582157	4.532457475013652	1.5112899993254825
2	main	190	1	1	0.8004656400007661	1	0.7959950619988376	0.784479800000554	-0.011515261998283677	15.520199999446094	4.516782355001633	0.4656400007660988
2	main	191	1	1	0.8013926380008343	1	0.8002390629990259	0.7890602280021994	-0.011178834996826481	10.939771997800607	4.530682675010903	1.3926380008342232
2	main	192	0	0	NaN	0.55	0.8002390629990259	0.7890602280021994	-0.011178834996826481	10.939771997800607	0.7599999999999998	1.3926380008342232
2	main	193	1	1	0.8160638000008476	1	0.8322789179983374	0.8126159130006272	-0.01966300499771023	12.615913000627144	4.750744375030772	16.063800000847507
2	main	194	0	0	NaN	0.5750000000000001	0.8322789179983374	0.8126159130006272	-0.01966300499771023	12.615913000627144	1.1350000000000016	16.063800000847507
2	main	195	0	1	0.8332697750010993	0.6000000000000001	0.8522699339991959	0.8280585920001613	-0.02421134199903463	12.615913000627144	1.5100000000000016	16.063800000847507
2	main	196	1	1	0.8510294200023054	1	0.8681358270005148	0.8446542500023497	-0.02348157699816511	44.654250002349684	5.275236475024721	51.02942000230537
2	main	197	1	1	0.900748238000233	1	0.9000823829992441	0.8860914329998195	-0.013990949999424629	86.09143299981947	6.021023424998711	100.74823800023292
2	main	198	1	1	0.8514359800028615	1	0.852086277998751	0.8380466230009915	-0.014039654997759499	38.04662300099149	5.281339720002288	51.43598000286143
2	main	199	1	1	0.7847892700010561	1	0.796282160001283	0.7726486200008367	-0.023633540000446374	27.35137999916337	4.281626500012644	15.210729998943906
2	main	200	1	1	0.7502838850014086	1	0.7682720170014363	0.7429988850017253	-0.02527313199971104	57.00111499827476	3.764046370031574	49.71611499859141
3	main	201	1	1	0.8179185549997783	1	0.8239604709997366	0.8084017129986023	-0.015558758001134265	8.401712998602262	4.778574624995381	17.918554999778237
3	main	202	1	1	0.8339478339985362	1	0.8402675819997967	0.8252504939991923	-0.015017088000604417	25.250493999192216	5.019013885010063	33.94783399853618
3	main	203	1	1	0.8344274700029928	1	0.8362764649973542	0.8261833830001706	-0.010093081997183617	26.183383000170537	5.026205544998229	34.427470002992735
3	main	204	1	1	0.7506825929995102	1	0.7640866130022914	0.7388962580007501	-0.02519035500154132	61.10374199924995	3.7700348199885045	49.31740700048981
3	main	205	1	1	0.7836817930001416	1	0.8002747149985225	0.7783945949995541	-0.02188011999896844	21.60540500044594	4.265020974997023	16.31820699985842
3	main	206	1	1	0.8007563469982415	1	0.808278466000047	0.7915187049984524	-0.016759761001594597	8.481295001547595	4.521142675000883	0.7563469982414528
3	main	207	1	1	0.7996327750006458	1	0.80838463800319	0.7922751370024343	-0.0161095010007557	7.724862997565696	4.504281325023621	0.36722499935426534
3	main	208	0	1	0.8008822800002235	0.5750000000000001	0.8080561829992803	0.7862396470009116	-0.021816535998368636	7.724862997565696	1.1350000000000016	0.36722499935426534
3	main	209	0	0	NaN	0.55	0.8080561829992803	0.7862396470009116	-0.021816535998368636	7.724862997565696	0.7599999999999998	0.36722499935426534
3	main	210	1	1	0.7996119550007279	1	0.8041211689996999	0.787062537001475	-0.017058631998224882	12.937462998525051	4.503967599992174	0.3880449992721413
3	main	211	0	1	0.8344490069976018	0.5750000000000001	0.8472411129987449	0.8236553399983677	-0.02358577300037723	12.937462998525051	1.1350000000000016	0.3880449992721413
3	main	212	1	1	0.8344660450020456	1	0.8441693779968773	0.8320430499989016	-0.01212632799797575	32.04304999890151	5.026789224991953	34.46604500204553
3	main	213	1	1	0.8507997750020877	1	0.8521691880014259	0.8341594850026013	-0.01800970299882465	34.159485002601244	5.271794424986874	50.79977500208766
3	main	214	1	1	0.8009055200018338	1	0.8082339970023895	0.7880392880033469	-0.020194708999042632	11.960711996653162	4.523379970030655	0.9055200018337484
3	main	215	0	1	0.7838587500009453	0.55	0.7882814869990398	0.7717775370001618	-0.016503949998877943	11.960711996653162	0.7599999999999998	0.9055200018337484
3	main	216	1	1	0.8174820549975266	1	0.820222891998128	0.8086402919980173	-0.011582600000110688	8.640291998017302	4.772026975004119	17.482054997526532
3	main	217	1	1	0.8345210379993659	1	0.8442582399984531	0.8280662049983221	-0.016192035000131	28.06620499832202	5.0276140749863405	34.5210379993659
3	main	218	1	1	0.8514344200011692	1	0.8602060129996971	0.8407482850016095	-0.01945772799808765	40.74828500160943	5.281309150011802	51.43442000116916
3	main	219	1	1	0.800316875000135	1	0.8082019729990861	0.797513159999653	-0.01068881299943314	2.486840000347046	4.514541429996607	0.31687500013499736
3	main	220	1	1	0.784233222999319	1	0.7963603650023288	0.7835353810005472	-0.012824984001781559	16.46461899945284	4.273273764991027	15.766777000681076
3	main	221	1	1	0.7518872820000979	1	0.7722982749983203	0.7466492489984375	-0.025649025999882724	53.3507510015625	3.7881037599779663	48.11271799990213
3	main	222	1	1	0.7841025029993034	1	0.788088533001428	0.7694974929981981	-0.018591040003229864	30.502507001801902	4.2713330949825465	15.897497000696648
3	main	223	1	1	0.7833079320007528	1	0.7963002579999738	0.771383715000411	-0.024916542999562807	28.616284999589013	4.259413524994452	16.69206799924727
3	main	224	1	1	0.8172641250021115	1	0.8190557909983909	0.8013234530008049	-0.017732337997586	1.3234530008048306	4.7687534200465596	17.2641250021115
3	main	225	1	1	0.7828940420004074	1	0.8001998580002692	0.780121665000479	-0.02007819299979019	19.878334999521073	4.253084124973393	17.10595799959269
3	main	226	0	0	NaN	0.5250000000000001	0.8001998580002692	0.780121665000479	-0.02007819299979019	19.878334999521073	0.38500000000000156	17.10595799959269
3	main	227	1	1	0.783937700001843	1	0.7921240679970651	0.7697963399987202	-0.022327727998344926	30.20366000127983	4.26886052500573	16.062299998157002
3	main	228	1	1	0.8175697629994829	1	0.8202710099976684	0.8056366079981672	-0.014634401999501279	5.63660799816712	4.773337975000468	17.569762999482876
3	main	229	1	1	0.8173968420014717	1	0.823229932000686	0.8006061199994292	-0.022623812001256738	0.6061199994291666	4.770750099994766	17.396842001471626
3	main	230	1	1	0.7995704199965985	1	0.804268621999654	0.7924086229977547	-0.011859999001899268	7.591377002245325	4.503338874963228	0.4295800034015418
3	main	231	0	0	NaN	0.55	0.804268621999654	0.7924086229977547	-0.011859999001899268	7.591377002245325	0.7599999999999998	0.4295800034015418
3	main	232	0	1	0.834312836999743	0.5750000000000001	0.8563253950014769	0.8336942300011287	-0.02263116500034812	7.591377002245325	1.1350000000000016	0.4295800034015418
3	main	233	1	1	0.899985870000819	1	0.9242887270011124	0.8989831020007841	-0.02530562500032829	98.98310200078409	6.009508780005271	99.98587000081893
3	main	234	0	0	NaN	0.55	0.9242887270011124	0.8989831020007841	-0.02530562500032829	98.98310200078409	0.7599999999999998	99.98587000081893
3	main	235	1	1	0.7831301750011335	1	0.8002694079987123	0.7747842579992721	-0.025485149999440182	25.215742000727957	4.256747725028399	16.869824998866576
3	main	236	1	1	0.800656886996876	1	0.8242539059974661	0.7991282749972015	-0.025125631000264548	0.871725002798529	4.51954340498356	0.6568869968759383
3	main	237	1	1	0.817154185999243	1	0.8242773949968978	0.8119759579967649	-0.012301437000132864	11.975957996764874	4.767109644961019	17.154185999243012
3	main	238	1	1	0.7839160299990908	1	0.7882750330027193	0.7717406770025264	-0.01653435600019293	28.25932299747369	4.268487355036777	16.08397000090922
3	main	239	1	1	0.8005154399979801	1	0.8032610200025374	0.7928430899992236	-0.010417930003313813	7.156910000776451	4.517524704968091	0.5154399979800939
3	main	240	0	0	NaN	0.5750000000000001	0.8032610200025374	0.7928430899992236	-0.010417930003313813	7.156910000776451	1.1350000000000016	0.5154399979800939
3	main	241	1	1	0.8505282949990942	1	0.856272879998869	0.8408002899996063	-0.01547258999926271	40.80028999960628	5.267718519987975	50.52829499909417
3	main	242	1	1	0.7676455920009175	1	0.7842591689986875	0.7593453170011344	-0.024913851997553138	40.65468299886565	4.024479580018815	32.35440799908251
3	main	243	1	1	0.7848212249991775	1	0.7880981630005408	0.7695587550006167	-0.01853940799992415	30.441244999383386	4.282109724970505	15.178775000822542
3	main	244	1	1	0.817470042999048	1	0.8241642100001627	0.8008950529983849	-0.023269157001777785	0.8950529983848821	4.771845550019643	17.470042999047976
3	main	245	1	1	0.8011498199994094	1	0.8080412700001034	0.7852455850006663	-0.02279568499943707	14.75441499933372	4.527046450000634	1.1498199994093294
3	main	246	0	1	0.7840341979972436	0.6000000000000001	0.7962584660017455	0.7775100729995756	-0.018748393002169905	14.75441499933372	1.5100000000000016	1.1498199994093294
3	main	247	1	1	0.7348040000033507	1	0.748086086998228	0.7321990210002696	-0.015887065997958416	67.80097899973048	3.5318732800058203	65.19599999664938
3	main	248	1	1	0.7837703049990523	1	0.8002866870010621	0.7750520299996424	-0.02523465700141969	24.947970000357643	4.266354624958476	16.22969500094773
3	main	249	0	1	0.7838142299988249	0.5750000000000001	0.7962161329996889	0.7747504519975337	-0.02146568100215518	24.947970000357643	1.1350000000000016	16.22969500094773
3	main	250	1	1	0.8675017280002066	1	0.8801376420015004	0.8659529899996414	-0.014184652001858922	65.95298999964139	5.522219574975461	67.5017280002066
3	main	251	1	1	0.8672780220003915	1	0.8640668070001993	0.852911807000055	-0.011155000000144355	52.911807000054935	5.518973799969681	67.27802200039146
3	main	252	0	1	0.7834457780008961	0.55	0.800255363999895	0.778192558002047	-0.022062805997848045	52.911807000054935	0.7599999999999998	67.27802200039146
3	main	253	1	1	0.8332253190019401	1	0.8404466629981471	0.8236510909991921	-0.016795571998954983	23.65109099919205	5.008177810030029	33.225319001940036
3	main	254	1	1	0.8171212609995564	1	0.8282725630015193	0.807594293000875	-0.02067827000064426	7.5942930008749965	4.766609140022192	17.121260999556355
3	main	255	1	1	0.7844851779991586	1	0.7830352050004876	0.7700263609985996	-0.013008844001888065	29.973639001400485	4.277054889969586	15.514822000841422
3	main	256	0	0	NaN	0.5250000000000001	0.7830352050004876	0.7700263609985996	-0.013008844001888065	29.973639001400485	0.38500000000000156	15.514822000841422
3	main	257	1	1	0.8335041030004504	1	0.844261099002324	0.8270540100020298	-0.017207089000294218	27.054010002029784	5.01235852003243	33.50410300045037
3	main	258	1	1	0.7669378069986124	1	0.788269576998573	0.7639442619984038	-0.024325315000169212	36.055738001596225	4.013867305018502	33.06219300138768
3	main	259	1	1	0.8343575600010809	1	0.8442417119986203	0.8279887130011048	-0.016252998997515533	27.988713001104728	5.025161395003815	34.35756000108081
3	main	260	1	1	0.8177945759998693	1	0.8162613970016537	0.8070241590030491	-0.009237237998604542	7.024159003049091	4.776714685047191	17.794575999869224
3	main	261	1	1	0.8173315530002583	1	0.8281721120001748	0.8149193960016419	-0.013252715998532949	14.919396001641827	4.769778820007341	17.33155300025824
3	main	262	1	1	0.8181456429992977	1	0.8162671120007872	0.8075981559995853	-0.008668956001201877	7.598155999585243	4.781980314981192	18.145642999297664
3	main	263	0	1	0.7844895870002802	0.55	0.7801056950011116	0.7683251950002159	-0.0117805000008957	7.598155999585243	0.7599999999999998	18.145642999297664
3	main	264	1	1	0.8331498879997525	1	0.848255318000156	0.8297343129997898	-0.01852100500036613	29.734312999789793	5.007083019970887	33.149887999752494
3	main	265	0	1	0.7680936329998076	0.5250000000000001	0.7640896650009381	0.7516595480010437	-0.01243011699989438	29.734312999789793	0.38500000000000156	33.149887999752494
3	main	266	0	1	0.7346410229984031	0.5	0.7481818099986413	0.7330506029975368	-0.015131207001104485	29.734312999789793	0.009999999999999787	33.149887999752494
3	main	267	1	1	0.800887571000203	1	0.8081427229990368	0.7986777179976343	-0.00946500500140246	1.3222820023657267	4.5231287349795455	0.8875710002029802
3	main	268	0	0	NaN	0.47500000000000003	0.8081427229990368	0.7986777179976343	-0.00946500500140246	1.3222820023657267	-0.3649999999999993	0.8875710002029802
3	main	269	1	1	0.7513650929977302	1	0.7641827429979458	0.750720044998161	-0.013462697999784723	49.279955001839014	3.7802460249602152	48.6349070022698
3	main	270	1	1	0.7675598349997017	1	0.776103249998414	0.7522060749979573	-0.023897175000456627	47.79392500204271	4.02320154998757	32.440165000298336
3	main	271	1	1	0.8345316820013977	1	0.8402534279994143	0.8258229150014813	-0.014430512997932965	25.822915001481263	5.027766550045053	34.53168200139767
3	main	272	1	1	0.8495437250021496	1	0.8642575150006451	0.8468302649998805	-0.017427250000764616	46.83026499988041	5.252968375023338	49.54372500214954
3	main	273	0	0	NaN	0.5	0.8642575150006451	0.8468302649998805	-0.017427250000764616	46.83026499988041	0.009999999999999787	49.54372500214954
3	main	274	1	1	0.8003892000015185	1	0.8161950049980078	0.7978363879992685	-0.018358616998739308	2.163612000731563	4.515649599996104	0.3892000015184305
3	main	275	1	1	0.783528601998114	1	0.8002313450015208	0.7805563170004461	-0.01967502800107468	19.4436829995539	4.262736129965342	16.471398001886016
3	main	276	1	1	0.7843320169995422	1	0.7842818909994094	0.7720379700003832	-0.012243920999026159	27.96202999961683	4.274774680032133	15.667983000457797
3	main	277	1	1	0.7846200730018609	1	0.8001387129988871	0.7823784530010016	-0.01776025999788544	17.621546998998426	4.279130724987917	15.37992699813917
3	main	278	0	0	NaN	0.5250000000000001	0.8001387129988871	0.7823784530010016	-0.01776025999788544	17.621546998998426	0.38500000000000156	15.37992699813917
3	main	279	1	1	0.8510452280024765	1	0.8642299169987382	0.8502588500014099	-0.013971066997328307	50.25885000140984	5.275424770004756	51.04522800247646
3	main	280	1	1	0.8670371719999821	1	0.8641356779990019	0.8500349150017428	-0.014100762997259153	50.03491500174273	5.515353280004783	67.03717199998205
3	main	281	0	1	0.7840745819994481	0.55	0.7882178580002801	0.7745887669989315	-0.01362909100134857	50.03491500174273	0.7599999999999998	67.03717199998205
3	main	282	1	1	0.8339658930017322	1	0.8320981159995426	0.8195725529985793	-0.012525563000963302	19.572552998579297	5.019265750013583	33.96589300173214
3	main	283	1	1	0.8179123949994391	1	0.8282456279994221	0.8106170479986758	-0.017628580000746297	10.6170479986758	4.778480124985217	17.912394999439087
3	main	284	0	0	NaN	0.5250000000000001	0.8282456279994221	0.8106170479986758	-0.017628580000746297	10.6170479986758	0.38500000000000156	17.912394999439087
3	main	285	1	1	0.8009821170016949	1	0.7961186150023423	0.7857766800007084	-0.010341935001633829	14.223319999291606	4.524528625004459	0.9821170016948155
3	main	286	1	1	0.7506822739997006	1	0.748097711999435	0.735524183997768	-0.012573528001667	64.47581600223207	3.770026434974861	49.31772600029949
3	main	287	0	1	0.7510092880002048	0.55	0.7560940469993511	0.7339436350011965	-0.022150411998154595	64.47581600223207	0.7599999999999998	49.31772600029949
3	main	288	1	1	0.8003041999982088	1	0.8202300979974098	0.7949397399970621	-0.025290358000347624	5.060260002937911	4.514352804979135	0.3041999982087429
3	main	289	1	1	0.7345496580019244	1	0.7431580159973237	0.7200022229990282	-0.02315579299829551	79.99777700097188	3.5280312699958447	65.45034199807564
3	main	290	1	1	0.7840179719969456	1	0.7882596849995025	0.7744102449978527	-0.013849440001649782	25.589755002147328	4.270065429971291	15.982028003054483
3	main	291	1	1	0.7665758799994364	1	0.780287674999272	0.7635324570001103	-0.016755217999161687	36.467542999889744	4.008425230020075	33.424120000563605
3	main	292	0	0	NaN	0.5250000000000001	0.780287674999272	0.7635324570001103	-0.016755217999161687	36.467542999889744	0.38500000000000156	33.424120000563605
3	main	293	1	1	0.8004762720011058	1	0.8042496230009419	0.7879539749992546	-0.01629564800168737	12.046025000745475	4.51693542999943	0.47627200110578194
3	main	294	0	1	0.7504686069987656	0.55	0.7601034149993211	0.73745182499988	-0.022651589999441057	12.046025000745475	0.7599999999999998	0.47627200110578194
3	main	295	0	1	0.7681088280005497	0.5250000000000001	0.7640848610026296	0.7514388880008482	-0.012645973001781385	12.046025000745475	0.38500000000000156	0.47627200110578194
3	main	296	1	1	0.817544663001172	1	0.8202722980022372	0.8057667300017783	-0.01450556800045888	5.766730001778297	4.77296414501121	17.54466300117197
3	main	297	1	1	0.784278858001926	1	0.788087529999757	0.7686455000002752	-0.019442029999481747	31.354499999724837	4.273982544998725	15.721141998074062
3	main	298	1	1	0.7836419850027596	1	0.7922557199999574	0.7761526620015502	-0.016103057998407166	23.847337998449845	4.264428055046446	16.35801499724043
3	main	299	1	1	0.7849017869993986	1	0.7881778420014598	0.7760843819996808	-0.012093460001779022	23.91561800031927	4.283320704960497	15.098213000601435
3	main	300	1	1	0.7843070300004911	1	0.7881418140023015	0.7699327570007881	-0.01820905700151343	30.067242999211928	4.27439886998196	15.692969999508977
4	main	301	1	1	0.7498434670014831	1	0.7602301500010071	0.7466290420015866	-0.013601107999420492	53.3709579984134	3.7574597800428453	50.156532998516965
4	main	302	1	1	0.7842560999997659	1	0.8041198569990229	0.7822622499988938	-0.021857607000129065	17.73775000110622	4.273626070023747	15.743900000234179
4	main	303	1	1	0.8164811099995859	1	0.8160544279999158	0.8053387369982374	-0.010715691001678351	5.338736998237392	4.7570281299683845	16.481109999585854
4	main	304	1	1	0.8332591700018384	1	0.85228900200309	0.8280581620019802	-0.024230840001109755	28.058162001980193	5.008679800028185	33.259170001838314
4	main	305	1	1	0.8171757599993725	1	0.8242515199999616	0.808686475000286	-0.015565044999675592	8.686475000285965	4.767433120012138	17.175759999372488
4	main	306	1	1	0.7843417760013836	1	0.7841026460009743	0.7686044120018778	-0.015498233999096556	31.395587998122252	4.274923060018191	15.658223998616494
4	main	307	1	1	0.8007798100006767	1	0.8202140690009401	0.8000730970015866	-0.020140971999353496	0.07309700158653065	4.521393700013286	0.7798100006766173
4	main	308	0	0	NaN	0.5	0.8202140690009401	0.8000730970015866	-0.020140971999353496	0.07309700158653065	0.009999999999999787	0.7798100006766173
4	main	309	0	0	NaN	0.5250000000000001	0.8202140690009401	0.8000730970015866	-0.020140971999353496	0.07309700158653065	0.38500000000000156	0.7798100006766173
4	main	310	1	1	0.7994512080003915	1	0.8122528399981093	0.7957220349999261	-0.016530804998183157	4.2779650000739355	4.501561750019173	0.5487919996085555
4	main	311	0	1	0.7842594050016487	0.55	0.8001831220026361	0.7827945450007974	-0.017388577001838712	4.2779650000739355	0.7599999999999998	0.5487919996085555
4	main	312	1	1	0.7671411409974098	1	0.784148892002122	0.766527423998923	-0.01762146800319897	33.472576001077	4.0168062849604755	32.85885900259022
4	main	313	1	1	0.7513360980010475	1	0.7602609069981554	0.74393801000042	-0.01632289699773537	56.06198999958001	3.7798341699979208	48.66390199895254
4	main	314	1	1	0.8007938070004457	1	0.8040938470003312	0.7859666889999062	-0.01812715800042497	14.033311000093862	4.521701484971127	0.7938070004456232
4	main	315	0	0	NaN	0.5250000000000001	0.8040938470003312	0.7859666889999062	-0.01812715800042497	14.033311000093862	0.38500000000000156	0.7938070004456232
4	main	316	1	1	0.8677899799986335	1	0.8720867420015566	0.8530009200003406	-0.019085822001216002	53.000920000340514	5.526645279985823	67.78997999863346
4	main	317	1	1	0.8344966619988554	1	0.8363166089984588	0.8226433989984798	-0.013673209999979008	22.643398998479782	5.0272476549596465	34.49666199885537
4	main	318	1	1	0.8505390099999204	1	0.8632690940030443	0.8379386420019728	-0.025330452001071535	37.938642001972724	5.267882904988946	50.53900999992034
4	main	319	1	1	0.751050179998856	1	0.7560247440014791	0.7373400899996341	-0.018684654001845047	62.65991000036597	3.7755464199815467	48.949820001144005
4	main	320	1	1	0.7670635329996003	1	0.7842686459989636	0.7583829430004698	-0.025885702998493798	41.61705699953022	4.015739349995565	32.93646700039976
4	main	321	1	1	0.7678880669991486	1	0.7761219700005313	0.7537008899998909	-0.02242108000064036	46.29911000010911	4.028116179977369	32.111933000851465
4	main	322	1	1	0.7344477499973436	1	0.7441158530018583	0.7200939249996736	-0.024021928002184723	79.90607500032642	3.5265073299867797	65.55225000265641
4	main	323	1	1	0.7515321179998864	1	0.7602364450031018	0.7431451930024195	-0.01709125200068229	56.854806997580496	3.7826510199900074	48.46788200011365
4	main	324	1	1	0.7844619220013556	1	0.784275534999324	0.7721901799995976	-0.012085354999726405	27.80982000040244	4.276727980029827	15.538077998644484
4	main	325	1	1	0.8014409450006497	1	0.8040914749981312	0.7851718679994519	-0.018919606998679228	14.828132000548111	4.531408074979263	1.4409450006496183
4	main	326	0	0	NaN	0.55	0.8040914749981312	0.7851718679994519	-0.018919606998679228	14.828132000548111	0.7599999999999998	1.4409450006496183
4	main	327	1	1	0.8007567619970359	1	0.8041110849990218	0.7846336449983937	-0.01947744000062812	15.366355001606324	4.521145449978357	0.756761997035893
4	main	328	1	1	0.8509437749999051	1	0.8601007180004672	0.8415181229975133	-0.018582595002953894	41.51812299751323	5.273953224966826	50.9437749999051
4	main	329	1	1	0.7846639920026064	1	0.7802717689992278	0.7713117070015869	-0.008960061997640878	28.688292998413132	4.279754650013055	15.336007997393653
4	main	330	1	1	0.8009788470008061	1	0.8122345529991435	0.7911466670011578	-0.021087885997985722	8.853332998842278	4.524475705018412	0.9788470008060823
4	main	331	0	1	0.7846513900003629	0.5750000000000001	0.7962613480012806	0.7720187849990907	-0.024242563002189854	8.853332998842278	1.1350000000000016	0.9788470008060823
4	main	332	0	0	NaN	0.55	0.7962613480012806	0.7720187849990907	-0.024242563002189854	8.853332998842278	0.7599999999999998	0.9788470008060823
4	main	333	1	1	0.7510369149968028	1	0.7522534630006703	0.7415770999978122	-0.010676363002858125	58.42290000218786	3.7753509249685155	48.963085003197236
4	main	334	0	1	0.7511704349999491	0.5750000000000001	0.7638273470001877	0.7395543480015476	-0.024272998998640105	58.42290000218786	1.1350000000000016	48.963085003197236
4	main	335	1	1	0.8006063380016712	1	0.8202645550009038	0.794225590001588	-0.026038964999315795	5.774409998412056	4.518893695019651	0.6063380016712028
4	main	336	1	1	0.8180742019976606	1	0.815963737997663	0.8018886199970439	-0.014075118000619113	1.8886199970438167	4.780906104949972	18.074201997660523
4	main	337	1	1	0.7672244570021576	1	0.7921107049987768	0.7656626220014005	-0.026448082997376332	34.33737799859959	4.018040080043429	32.775542997842464
4	main	338	1	1	0.7508473109992337	1	0.7601405749992409	0.7457094859964855	-0.01443108900275547	54.29051400351459	3.772504734986578	49.1526890007663
4	main	339	1	1	0.8165597630031698	1	0.8188644360016042	0.8015210180019494	-0.017343417999654775	1.5210180019493702	4.758188425037369	16.55976300316975
4	main	340	0	1	0.7830164170009084	0.55	0.7962852799973916	0.7793532750001759	-0.0169320049972157	1.5210180019493702	0.7599999999999998	16.55976300316975
4	main	341	1	1	0.8014533720015606	1	0.8171173330010788	0.8008768270010478	-0.01624050600003102	0.8768270010477419	4.531500175014807	1.4533720015605933
4	main	342	1	1	0.801168294998206	1	0.8082703599975503	0.7877150729982532	-0.020555286999297095	12.284927001746881	4.5273173199873415	1.168294998205921
4	main	343	1	1	0.783568347000255	1	0.7873760149996087	0.7703875699990022	-0.01698844500060659	29.61243000099789	4.263320724983496	16.431652999745026
4	main	344	1	1	0.8336847820028197	1	0.8480413789984595	0.8262819310002669	-0.021759447998192627	26.28193100026688	5.015092000046716	33.68478200281966
4	main	345	1	1	0.8341449399995327	1	0.8400773619978281	0.8173420399980387	-0.02273532199978945	17.34203999803863	5.021972949978371	34.14493999953261
4	main	346	0	0	NaN	0.5250000000000001	0.8400773619978281	0.8173420399980387	-0.02273532199978945	17.34203999803863	0.38500000000000156	34.14493999953261
4	main	347	1	1	0.7673014620013419	1	0.788126313000248	0.7656961300017429	-0.022430182998505188	34.303869998257184	4.019259955000743	32.69853799865818
4	main	348	1	1	0.7671491109977069	1	0.7840823250007816	0.764333679999254	-0.01974864500152762	35.6663200007461	4.017059184987156	32.85088900229316
4	main	349	0	1	0.7838940940018801	0.55	0.7880526059998374	0.7766250380009296	-0.011427567998907762	35.6663200007461	0.7599999999999998	32.85088900229316
4	main	350	1	1	0.7843928839974978	1	0.7842393570026616	0.7756304989998171	-0.0086088580028445	24.36950100018298	4.275682914956414	15.607116002502197
4	main	351	1	1	0.818096830000286	1	0.8242436700020335	0.8050410830001056	-0.019202587001927895	5.0410830001055285	4.781246619984595	18.096830000285948
4	main	352	0	0	NaN	0.5250000000000001	0.8242436700020335	0.8050410830001056	-0.019202587001927895	5.0410830001055285	0.38500000000000156	18.096830000285948
4	main	353	1	1	0.8343968750014028	1	0.8400683359977847	0.8272392079998099	-0.012829127997974865	27.239207999809835	5.0257502199908775	34.39687500140276
4	main	354	1	1	0.7008587749987782	1	0.7002678390017536	0.690061766999861	-0.010206072001892608	109.93823300013905	3.022682949974987	99.1412250012218
4	main	355	1	1	0.8500226400028623	1	0.8642111820008722	0.8413052720025007	-0.0229059099983715	41.30527200250067	5.260137625043862	50.022640002862275
4	main	356	0	1	0.750681818000885	0.55	0.7642449699997087	0.7433373130006657	-0.020907656999042956	41.30527200250067	0.7599999999999998	50.022640002862275
4	main	357	1	1	0.7675620990012249	1	0.7802630429978308	0.7601595369997085	-0.020103505998122273	39.840463000291535	4.0232269300193	32.43790099877519
4	main	358	1	1	0.8839943329985545	1	0.8913688370012096	0.8677181630009727	-0.023650674000236904	67.71816300097267	5.769711069986224	83.99433299855441
4	main	359	1	1	0.7835522100031085	1	0.7963360319990898	0.7759909230007906	-0.02034510899829911	24.009076999209398	4.263076825025346	16.447789996891558
4	main	360	1	1	0.8009024519997183	1	0.8000600369996391	0.7867883689978044	-0.013271668001834769	13.21163100219569	4.523331084981473	0.9024519997182789
4	main	361	1	1	0.9178269490003004	1	0.9280474229999527	0.915526051998313	-0.012521371001639636	115.52605199831301	6.277245594990527	117.82694900030033
4	main	362	1	1	0.8163467150006909	1	0.8202566020008817	0.8099380220010062	-0.01031857999987551	9.93802200100613	4.754998329988448	16.34671500069085
4	main	363	0	0	NaN	0.5250000000000001	0.8202566020008817	0.8099380220010062	-0.01031857999987551	9.93802200100613	0.38500000000000156	16.34671500069085
4	main	364	1	1	0.7833731770006125	1	0.8042477049966692	0.7781943469999533	-0.02605335799671593	21.805653000046775	4.26039250001646	16.626822999387556
4	main	365	0	1	0.7838254579983186	0.55	0.784254250000231	0.773455415997887	-0.010798834002343938	21.805653000046775	0.7599999999999998	16.626822999387556
4	main	366	0	1	0.7513635760005855	0.5250000000000001	0.7522668790006719	0.7404795010006637	-0.011787378000008175	21.805653000046775	0.38500000000000156	16.626822999387556
4	main	367	1	1	0.7514603349991376	1	0.7522428849988501	0.7419829229984316	-0.010259962000418454	58.01707700156844	3.781700800025428	48.539665000862485
4	main	368	0	0	NaN	0.5	0.7522428849988501	0.7419829229984316	-0.010259962000418454	58.01707700156844	0.009999999999999787	48.539665000862485
4	main	369	1	1	0.7840100200010056	1	0.7961953370031551	0.7723302000013064	-0.02386513700184878	27.669799998693676	4.269940450010617	15.98997999899443
4	main	370	1	1	0.8014114069992502	1	0.8002446469981805	0.7905432869993092	-0.00970135999887134	9.456713000690842	4.53096947497921	1.411406999250131
4	main	371	1	1	0.7674641400008113	1	0.7802607630001148	0.7549893850009539	-0.025271377999160904	45.010614999046126	4.0217544249915225	32.53585999918873
4	main	372	1	1	0.7838725969995721	1	0.7882676050030568	0.7712409500018111	-0.017026655001245672	28.7590499981889	4.267879180022428	16.12740300042792
4	main	373	0	0	NaN	0.5250000000000001	0.7882676050030568	0.7712409500018111	-0.017026655001245672	28.7590499981889	0.38500000000000156	16.12740300042792
4	main	374	1	1	0.8010047780007881	1	0.8080813950000447	0.7860704430022452	-0.022010951997799566	13.929556997754888	4.524871224982926	1.0047780007880203
4	main	375	1	1	0.8163508369980264	1	0.8282514220009034	0.812428656998236	-0.015822765002667438	12.42865699823592	4.755053874994482	16.35083699802631
4	main	376	1	1	0.8176119029994879	1	0.8160806230007438	0.803040618000523	-0.013040005000220845	3.04061800052291	4.7739373450329	17.611902999487896
4	main	377	1	1	0.7511833070020657	1	0.7681255900024553	0.7499478180034203	-0.01817777199903503	50.05218199657979	3.777501595048088	48.81669299793434
4	main	378	0	0	NaN	0.55	0.7681255900024553	0.7499478180034203	-0.01817777199903503	50.05218199657979	0.7599999999999998	48.81669299793434
4	main	379	1	1	0.8511328019994835	1	0.8601269799983129	0.849465514998883	-0.010661464999429882	49.465514998882966	5.276770524995081	51.13280199948345
4	main	380	1	1	0.7672100429990678	1	0.7895075199994608	0.766175774999283	-0.02333174500017776	33.82422500071702	4.017882745008828	32.78995700093223
4	main	381	0	0	NaN	0.5750000000000001	0.7895075199994608	0.766175774999283	-0.02333174500017776	33.82422500071702	1.1350000000000016	32.78995700093223
4	main	382	1	1	0.8177864450008201	1	0.812079552000796	0.8027688370020769	-0.00931071499871905	2.7688370020768627	4.7765898549894334	17.786445000820052
4	main	383	1	1	0.8506853920007416	1	0.8601527770006214	0.8497994520002976	-0.01035332500032382	49.79945200029756	5.270055325015855	50.685392000741516
4	main	384	0	1	0.8345401430015045	0.6000000000000001	0.8321637720000581	0.8208487199990486	-0.011315052001009462	49.79945200029756	1.5100000000000016	50.685392000741516
4	main	385	1	1	0.8348986519995378	1	0.8320631179994962	0.8193351669979165	-0.01272795100157964	19.335166997916488	5.033275779967662	34.89865199953779
4	main	386	1	1	0.8011517570012074	1	0.804248025000561	0.7947723120014416	-0.009475712999119423	5.227687998558439	4.52701542997398	1.1517570012073985
4	main	387	0	1	0.8507639550007298	0.5750000000000001	0.8480789400018693	0.8376403620022757	-0.01043857799959369	5.227687998558439	1.1350000000000016	1.1517570012073985
4	main	388	1	1	0.8342667100005201	1	0.8440958020000835	0.822206331002235	-0.021889470997848548	22.206331002234904	5.023792900008411	34.266710000520064
4	main	389	1	1	0.8172864469997876	1	0.8240747550007654	0.8009987199984607	-0.023076035002304707	0.9987199984606843	4.769086674966966	17.286446999787543
4	main	390	1	1	0.8344407399999909	1	0.8401139430025069	0.8193854150013067	-0.020728528001200175	19.38541500130664	5.026405299993494	34.44073999999087
4	main	391	1	1	0.8012636849998671	1	0.8121881699989899	0.7938032649981324	-0.018384905000857543	6.1967350018676814	4.528742500004009	1.2636849998670652
4	main	392	0	1	0.7837319430000207	0.55	0.8041906110011041	0.7813702080020448	-0.022820402999059297	6.1967350018676814	0.7599999999999998	1.2636849998670652
4	main	393	1	1	0.8008436349991825	1	0.8123246379982447	0.7978665549999278	-0.014458082998316968	2.133445000072287	4.522467429995013	0.8436349991824965
4	main	394	0	0	NaN	0.5250000000000001	0.8123246379982447	0.7978665549999278	-0.014458082998316968	2.133445000072287	0.38500000000000156	0.8436349991824965
4	main	395	0	0	NaN	0.55	0.8123246379982447	0.7978665549999278	-0.014458082998316968	2.133445000072287	0.7599999999999998	0.8436349991824965
4	main	396	1	1	0.8014010200022312	1	0.796084518002317	0.7855639580011484	-0.010520560001168633	14.436041998851623	4.530807924982364	1.4010200022311903
4	main	397	1	1	0.8012512850000348	1	0.816210510001838	0.8005255550015136	-0.015684955000324408	0.5255550015135224	4.528535380011599	1.2512850000347964
4	main	398	1	1	0.7834860980001395	1	0.8002555290004238	0.7769551000019419	-0.023300428998481948	23.044899998058142	4.262086149990646	16.51390199986058
4	main	399	1	1	0.8502015499980189	1	0.8601820180010691	0.8450980550005625	-0.015083963000506628	45.09805500056241	5.262857110008335	50.20154999801885
4	main	400	1	1	0.8171006199991098	1	0.8161032069983776	0.8026128669989703	-0.013490339999407297	2.6128669989702313	4.766298849988525	17.100619999109725
